"date","time","computer.platform","computer.os","subject","display.canvaswidth","display.canvasheight","display.width","display.height","display.refreshrate","blockcode","trialcode","trial_number","Age","Sex","Handedness","latency","mousex","mousey","audio_condition_select","probe_final_frame_id","probe_displacement","trial.Probe_Measure.response","survey_Q1","survey_Q2","survey_Q3","survey_Q4","survey_Q5","ID","Action_Dir","Action_pos","Sound","Probe_response","Probe_dist","Probe_dir"
"2023-03-08","20:39:30","win","win10",968791880,"1680px","1050px",1680,1050,60,"block_R1S2","Probe_Measure",1,21,"Male","Right-handed",1031,1387,938,2,21,-1,"57","0","0","0","0","0",1,"R","C","+ 100 ms",1,1,"-"
"2023-03-08","20:39:30","win","win10",968791880,"1680px","1050px",1680,1050,60,"block_W1S2","Probe_Measure",2,21,"Male","Right-handed",873,1387,938,2,9,-3,"57","0","0","0","0","0",1,"W","C","+ 100 ms",1,3,"-"
"2023-03-08","20:39:30","win","win10",968791880,"1680px","1050px",1680,1050,60,"block_R1S2","Probe_Measure",3,21,"Male","Right-handed",583,1387,938,2,21,-3,"57","0","0","0","0","0",1,"R","C","+ 100 ms",1,3,"-"
"2023-03-08","20:39:30","win","win10",968791880,"1680px","1050px",1680,1050,60,"block_R3S1","Probe_Measure",4,21,"Male","Right-handed",4800,1387,938,5,25,1,"0","0","0","0","0","0",1,"R","O","- 100 ms",0,1,"+"
"2023-03-08","20:39:30","win","win10",968791880,"1680px","1050px",1680,1050,60,"block_W2S2","Probe_Measure",5,21,"Male","Right-handed",4800,1387,938,4,7,-3,"0","0","0","0","0","0",1,"W","M","+ 100 ms",0,3,"-"
"2023-03-08","20:39:30","win","win10",968791880,"1680px","1050px",1680,1050,60,"block_W1S1","Probe_Measure",6,21,"Male","Right-handed",1029,1387,938,1,9,1,"57","0","0","0","0","0",1,"W","C","- 100 ms",1,1,"+"
"2023-03-08","20:39:30","win","win10",968791880,"1680px","1050px",1680,1050,60,"block_R3S1","Probe_Measure",7,21,"Male","Right-handed",4800,1387,938,5,25,-1,"0","0","0","0","0","0",1,"R","O","- 100 ms",0,1,"-"
"2023-03-08","20:39:30","win","win10",968791880,"1680px","1050px",1680,1050,60,"block_R3S1","Probe_Measure",8,21,"Male","Right-handed",4800,1387,938,5,25,3,"0","0","0","0","0","0",1,"R","O","- 100 ms",0,3,"+"
"2023-03-08","20:39:30","win","win10",968791880,"1680px","1050px",1680,1050,60,"block_R3S1","Probe_Measure",9,21,"Male","Right-handed",976,1387,938,5,25,-3,"57","0","0","0","0","0",1,"R","O","- 100 ms",1,3,"-"
"2023-03-08","20:39:30","win","win10",968791880,"1680px","1050px",1680,1050,60,"block_W3S2","Probe_Measure",10,21,"Male","Right-handed",4800,1387,938,6,5,-1,"0","0","0","0","0","0",1,"W","O","+ 100 ms",0,1,"-"
"2023-03-08","20:39:30","win","win10",968791880,"1680px","1050px",1680,1050,60,"block_W1S1","Probe_Measure",11,21,"Male","Right-handed",887,1387,938,1,9,-3,"57","0","0","0","0","0",1,"W","C","- 100 ms",1,3,"-"
"2023-03-08","20:39:30","win","win10",968791880,"1680px","1050px",1680,1050,60,"block_W2S2","Probe_Measure",12,21,"Male","Right-handed",4800,1387,938,4,7,-1,"0","0","0","0","0","0",1,"W","M","+ 100 ms",0,1,"-"
"2023-03-08","20:39:30","win","win10",968791880,"1680px","1050px",1680,1050,60,"block_R1S1","Probe_Measure",13,21,"Male","Right-handed",1837,1387,938,1,21,3,"57","0","0","0","0","0",1,"R","C","- 100 ms",1,3,"+"
"2023-03-08","20:39:30","win","win10",968791880,"1680px","1050px",1680,1050,60,"block_R2S1","Probe_Measure",14,21,"Male","Right-handed",4800,1387,938,3,23,1,"0","0","0","0","0","0",1,"R","M","- 100 ms",0,1,"+"
"2023-03-08","20:39:30","win","win10",968791880,"1680px","1050px",1680,1050,60,"block_W1S1","Probe_Measure",15,21,"Male","Right-handed",700,1387,938,1,9,3,"57","0","0","0","0","0",1,"W","C","- 100 ms",1,3,"+"
"2023-03-08","20:39:30","win","win10",968791880,"1680px","1050px",1680,1050,60,"block_R1S1","Probe_Measure",16,21,"Male","Right-handed",879,1387,938,1,21,-3,"57","0","0","0","0","0",1,"R","C","- 100 ms",1,3,"-"
"2023-03-08","20:39:30","win","win10",968791880,"1680px","1050px",1680,1050,60,"block_R2S2","Probe_Measure",17,21,"Male","Right-handed",1171,1387,938,4,23,3,"57","0","0","0","0","0",1,"R","M","+ 100 ms",1,3,"+"
"2023-03-08","20:39:30","win","win10",968791880,"1680px","1050px",1680,1050,60,"block_W3S1","Probe_Measure",18,21,"Male","Right-handed",830,1387,938,5,5,3,"57","0","0","0","0","0",1,"W","O","- 100 ms",1,3,"+"
"2023-03-08","20:39:30","win","win10",968791880,"1680px","1050px",1680,1050,60,"block_W3S1","Probe_Measure",19,21,"Male","Right-handed",4800,1387,938,5,5,-3,"0","0","0","0","0","0",1,"W","O","- 100 ms",0,3,"-"
"2023-03-08","20:39:30","win","win10",968791880,"1680px","1050px",1680,1050,60,"block_W2S1","Probe_Measure",20,21,"Male","Right-handed",1207,1387,938,3,7,1,"57","0","0","0","0","0",1,"W","M","- 100 ms",1,1,"+"
"2023-03-08","20:39:30","win","win10",968791880,"1680px","1050px",1680,1050,60,"block_R3S2","Probe_Measure",21,21,"Male","Right-handed",4800,1387,938,6,25,1,"0","0","0","0","0","0",1,"R","O","+ 100 ms",0,1,"+"
"2023-03-08","20:39:30","win","win10",968791880,"1680px","1050px",1680,1050,60,"block_R2S2","Probe_Measure",22,21,"Male","Right-handed",843,1387,938,4,23,-3,"57","0","0","0","0","0",1,"R","M","+ 100 ms",1,3,"-"
"2023-03-08","20:39:30","win","win10",968791880,"1680px","1050px",1680,1050,60,"block_W2S1","Probe_Measure",23,21,"Male","Right-handed",738,1387,938,3,7,3,"57","0","0","0","0","0",1,"W","M","- 100 ms",1,3,"+"
"2023-03-08","20:39:30","win","win10",968791880,"1680px","1050px",1680,1050,60,"block_W2S1","Probe_Measure",24,21,"Male","Right-handed",4800,1387,938,3,7,-1,"0","0","0","0","0","0",1,"W","M","- 100 ms",0,1,"-"
"2023-03-08","20:39:30","win","win10",968791880,"1680px","1050px",1680,1050,60,"block_W2S2","Probe_Measure",25,21,"Male","Right-handed",1085,1387,938,4,7,3,"57","0","0","0","0","0",1,"W","M","+ 100 ms",1,3,"+"
"2023-03-08","20:39:30","win","win10",968791880,"1680px","1050px",1680,1050,60,"block_R2S1","Probe_Measure",26,21,"Male","Right-handed",894,1387,938,3,23,-3,"57","0","0","0","0","0",1,"R","M","- 100 ms",1,3,"-"
"2023-03-08","20:39:30","win","win10",968791880,"1680px","1050px",1680,1050,60,"block_W2S1","Probe_Measure",27,21,"Male","Right-handed",1057,1387,938,3,7,-3,"57","0","0","0","0","0",1,"W","M","- 100 ms",1,3,"-"
"2023-03-08","20:39:30","win","win10",968791880,"1680px","1050px",1680,1050,60,"block_R2S1","Probe_Measure",28,21,"Male","Right-handed",2576,1387,938,3,23,3,"57","0","0","0","0","0",1,"R","M","- 100 ms",1,3,"+"
"2023-03-08","20:39:30","win","win10",968791880,"1680px","1050px",1680,1050,60,"block_R3S2","Probe_Measure",29,21,"Male","Right-handed",4800,1387,938,6,25,-1,"0","0","0","0","0","0",1,"R","O","+ 100 ms",0,1,"-"
"2023-03-08","20:39:30","win","win10",968791880,"1680px","1050px",1680,1050,60,"block_R1S1","Probe_Measure",30,21,"Male","Right-handed",4800,1387,938,1,21,1,"0","0","0","0","0","0",1,"R","C","- 100 ms",0,1,"+"
"2023-03-08","20:39:30","win","win10",968791880,"1680px","1050px",1680,1050,60,"block_W1S2","Probe_Measure",31,21,"Male","Right-handed",4800,1387,938,2,9,-1,"0","0","0","0","0","0",1,"W","C","+ 100 ms",0,1,"-"
"2023-03-08","20:39:30","win","win10",968791880,"1680px","1050px",1680,1050,60,"block_W3S1","Probe_Measure",32,21,"Male","Right-handed",1352,1387,938,5,5,-1,"57","0","0","0","0","0",1,"W","O","- 100 ms",1,1,"-"
"2023-03-08","20:39:30","win","win10",968791880,"1680px","1050px",1680,1050,60,"block_R1S2","Probe_Measure",33,21,"Male","Right-handed",4800,1387,938,2,21,1,"0","0","0","0","0","0",1,"R","C","+ 100 ms",0,1,"+"
"2023-03-08","20:39:30","win","win10",968791880,"1680px","1050px",1680,1050,60,"block_R1S1","Probe_Measure",34,21,"Male","Right-handed",4800,1387,938,1,21,-1,"0","0","0","0","0","0",1,"R","C","- 100 ms",0,1,"-"
"2023-03-08","20:39:30","win","win10",968791880,"1680px","1050px",1680,1050,60,"block_W2S2","Probe_Measure",35,21,"Male","Right-handed",1390,1387,938,4,7,1,"57","0","0","0","0","0",1,"W","M","+ 100 ms",1,1,"+"
"2023-03-08","20:39:30","win","win10",968791880,"1680px","1050px",1680,1050,60,"block_R3S2","Probe_Measure",36,21,"Male","Right-handed",4800,1387,938,6,25,3,"0","0","0","0","0","0",1,"R","O","+ 100 ms",0,3,"+"
"2023-03-08","20:39:30","win","win10",968791880,"1680px","1050px",1680,1050,60,"block_W3S2","Probe_Measure",37,21,"Male","Right-handed",4800,1387,938,6,5,1,"0","0","0","0","0","0",1,"W","O","+ 100 ms",0,1,"+"
"2023-03-08","20:39:30","win","win10",968791880,"1680px","1050px",1680,1050,60,"block_W3S2","Probe_Measure",38,21,"Male","Right-handed",1323,1387,938,6,5,-3,"57","0","0","0","0","0",1,"W","O","+ 100 ms",1,3,"-"
"2023-03-08","20:39:30","win","win10",968791880,"1680px","1050px",1680,1050,60,"block_R3S2","Probe_Measure",39,21,"Male","Right-handed",1410,1387,938,6,25,-3,"57","0","0","0","0","0",1,"R","O","+ 100 ms",1,3,"-"
"2023-03-08","20:39:30","win","win10",968791880,"1680px","1050px",1680,1050,60,"block_W3S1","Probe_Measure",40,21,"Male","Right-handed",4800,1387,938,5,5,1,"0","0","0","0","0","0",1,"W","O","- 100 ms",0,1,"+"
"2023-03-08","20:39:30","win","win10",968791880,"1680px","1050px",1680,1050,60,"block_W1S2","Probe_Measure",41,21,"Male","Right-handed",1574,1387,938,2,9,3,"57","0","0","0","0","0",1,"W","C","+ 100 ms",1,3,"+"
"2023-03-08","20:39:30","win","win10",968791880,"1680px","1050px",1680,1050,60,"block_R2S2","Probe_Measure",42,21,"Male","Right-handed",4800,1387,938,4,23,1,"0","0","0","0","0","0",1,"R","M","+ 100 ms",0,1,"+"
"2023-03-08","20:39:30","win","win10",968791880,"1680px","1050px",1680,1050,60,"block_W1S2","Probe_Measure",43,21,"Male","Right-handed",4800,1387,938,2,9,1,"0","0","0","0","0","0",1,"W","C","+ 100 ms",0,1,"+"
"2023-03-08","20:39:30","win","win10",968791880,"1680px","1050px",1680,1050,60,"block_R1S2","Probe_Measure",44,21,"Male","Right-handed",856,1387,938,2,21,3,"57","0","0","0","0","0",1,"R","C","+ 100 ms",1,3,"+"
"2023-03-08","20:39:30","win","win10",968791880,"1680px","1050px",1680,1050,60,"block_W1S1","Probe_Measure",45,21,"Male","Right-handed",4800,1387,938,1,9,-1,"0","0","0","0","0","0",1,"W","C","- 100 ms",0,1,"-"
"2023-03-08","20:39:30","win","win10",968791880,"1680px","1050px",1680,1050,60,"block_W3S2","Probe_Measure",46,21,"Male","Right-handed",1272,1387,938,6,5,3,"57","0","0","0","0","0",1,"W","O","+ 100 ms",1,3,"+"
"2023-03-08","20:39:30","win","win10",968791880,"1680px","1050px",1680,1050,60,"block_R2S1","Probe_Measure",47,21,"Male","Right-handed",2045,1387,938,3,23,-1,"57","0","0","0","0","0",1,"R","M","- 100 ms",1,1,"-"
"2023-03-08","20:39:30","win","win10",968791880,"1680px","1050px",1680,1050,60,"block_R2S2","Probe_Measure",48,21,"Male","Right-handed",1077,1387,938,4,23,-1,"57","0","0","0","0","0",1,"R","M","+ 100 ms",1,1,"-"
"2023-03-08","20:39:30","win","win10",968791880,"1680px","1050px",1680,1050,60,"block_R2S2","Probe_Measure",49,21,"Male","Right-handed",4800,1387,938,4,23,-1,"0","0","0","0","0","0",1,"R","M","+ 100 ms",0,1,"-"
"2023-03-08","20:39:30","win","win10",968791880,"1680px","1050px",1680,1050,60,"block_W2S2","Probe_Measure",50,21,"Male","Right-handed",4800,1387,938,4,7,3,"0","0","0","0","0","0",1,"W","M","+ 100 ms",0,3,"+"
"2023-03-08","20:39:30","win","win10",968791880,"1680px","1050px",1680,1050,60,"block_W1S2","Probe_Measure",51,21,"Male","Right-handed",1360,1387,938,2,9,-3,"57","0","0","0","0","0",1,"W","C","+ 100 ms",1,3,"-"
"2023-03-08","20:39:30","win","win10",968791880,"1680px","1050px",1680,1050,60,"block_R3S2","Probe_Measure",52,21,"Male","Right-handed",4800,1387,938,6,25,1,"0","0","0","0","0","0",1,"R","O","+ 100 ms",0,1,"+"
"2023-03-08","20:39:30","win","win10",968791880,"1680px","1050px",1680,1050,60,"block_W2S2","Probe_Measure",53,21,"Male","Right-handed",1302,1387,938,4,7,-3,"57","0","0","0","0","0",1,"W","M","+ 100 ms",1,3,"-"
"2023-03-08","20:39:30","win","win10",968791880,"1680px","1050px",1680,1050,60,"block_R1S1","Probe_Measure",54,21,"Male","Right-handed",1437,1387,938,1,21,-1,"57","0","0","0","0","0",1,"R","C","- 100 ms",1,1,"-"
"2023-03-08","20:39:30","win","win10",968791880,"1680px","1050px",1680,1050,60,"block_R3S1","Probe_Measure",55,21,"Male","Right-handed",1744,1387,938,5,25,3,"57","0","0","0","0","0",1,"R","O","- 100 ms",1,3,"+"
"2023-03-08","20:39:30","win","win10",968791880,"1680px","1050px",1680,1050,60,"block_W3S2","Probe_Measure",56,21,"Male","Right-handed",4800,1387,938,6,5,3,"0","0","0","0","0","0",1,"W","O","+ 100 ms",0,3,"+"
"2023-03-08","20:39:30","win","win10",968791880,"1680px","1050px",1680,1050,60,"block_W3S1","Probe_Measure",57,21,"Male","Right-handed",962,1387,938,5,5,-1,"57","0","0","0","0","0",1,"W","O","- 100 ms",1,1,"-"
"2023-03-08","20:39:30","win","win10",968791880,"1680px","1050px",1680,1050,60,"block_W1S2","Probe_Measure",58,21,"Male","Right-handed",2034,1387,938,2,9,3,"57","0","0","0","0","0",1,"W","C","+ 100 ms",1,3,"+"
"2023-03-08","20:39:30","win","win10",968791880,"1680px","1050px",1680,1050,60,"block_R3S1","Probe_Measure",59,21,"Male","Right-handed",1218,1387,938,5,25,-3,"57","0","0","0","0","0",1,"R","O","- 100 ms",1,3,"-"
"2023-03-08","20:39:30","win","win10",968791880,"1680px","1050px",1680,1050,60,"block_R3S2","Probe_Measure",60,21,"Male","Right-handed",1114,1387,938,6,25,-3,"57","0","0","0","0","0",1,"R","O","+ 100 ms",1,3,"-"
"2023-03-08","20:39:30","win","win10",968791880,"1680px","1050px",1680,1050,60,"block_W1S1","Probe_Measure",61,21,"Male","Right-handed",1061,1387,938,1,9,3,"57","0","0","0","0","0",1,"W","C","- 100 ms",1,3,"+"
"2023-03-08","20:39:30","win","win10",968791880,"1680px","1050px",1680,1050,60,"block_W2S1","Probe_Measure",62,21,"Male","Right-handed",4800,1387,938,3,7,1,"0","0","0","0","0","0",1,"W","M","- 100 ms",0,1,"+"
"2023-03-08","20:39:30","win","win10",968791880,"1680px","1050px",1680,1050,60,"block_W3S2","Probe_Measure",63,21,"Male","Right-handed",4800,1387,938,6,5,1,"0","0","0","0","0","0",1,"W","O","+ 100 ms",0,1,"+"
"2023-03-08","20:39:30","win","win10",968791880,"1680px","1050px",1680,1050,60,"block_R2S1","Probe_Measure",64,21,"Male","Right-handed",4800,1387,938,3,23,3,"0","0","0","0","0","0",1,"R","M","- 100 ms",0,3,"+"
"2023-03-08","20:39:30","win","win10",968791880,"1680px","1050px",1680,1050,60,"block_R2S1","Probe_Measure",65,21,"Male","Right-handed",4800,1387,938,3,23,1,"0","0","0","0","0","0",1,"R","M","- 100 ms",0,1,"+"
"2023-03-08","20:39:30","win","win10",968791880,"1680px","1050px",1680,1050,60,"block_R1S2","Probe_Measure",66,21,"Male","Right-handed",1916,1387,938,2,21,-3,"57","0","0","0","0","0",1,"R","C","+ 100 ms",1,3,"-"
"2023-03-08","20:39:30","win","win10",968791880,"1680px","1050px",1680,1050,60,"block_W3S1","Probe_Measure",67,21,"Male","Right-handed",4800,1387,938,5,5,-3,"0","0","0","0","0","0",1,"W","O","- 100 ms",0,3,"-"
"2023-03-08","20:39:30","win","win10",968791880,"1680px","1050px",1680,1050,60,"block_W3S1","Probe_Measure",68,21,"Male","Right-handed",1396,1387,938,5,5,3,"57","0","0","0","0","0",1,"W","O","- 100 ms",1,3,"+"
"2023-03-08","20:39:30","win","win10",968791880,"1680px","1050px",1680,1050,60,"block_R1S2","Probe_Measure",69,21,"Male","Right-handed",4800,1387,938,2,21,3,"0","0","0","0","0","0",1,"R","C","+ 100 ms",0,3,"+"
"2023-03-08","20:39:30","win","win10",968791880,"1680px","1050px",1680,1050,60,"block_R2S2","Probe_Measure",70,21,"Male","Right-handed",4800,1387,938,4,23,3,"0","0","0","0","0","0",1,"R","M","+ 100 ms",0,3,"+"
"2023-03-08","20:39:30","win","win10",968791880,"1680px","1050px",1680,1050,60,"block_R3S2","Probe_Measure",71,21,"Male","Right-handed",4800,1387,938,6,25,3,"0","0","0","0","0","0",1,"R","O","+ 100 ms",0,3,"+"
"2023-03-08","20:39:30","win","win10",968791880,"1680px","1050px",1680,1050,60,"block_W3S2","Probe_Measure",72,21,"Male","Right-handed",718,1387,938,6,5,-3,"57","0","0","0","0","0",1,"W","O","+ 100 ms",1,3,"-"
"2023-03-08","20:39:30","win","win10",968791880,"1680px","1050px",1680,1050,60,"block_R1S2","Probe_Measure",73,21,"Male","Right-handed",1164,1387,938,2,21,1,"57","0","0","0","0","0",1,"R","C","+ 100 ms",1,1,"+"
"2023-03-08","20:39:30","win","win10",968791880,"1680px","1050px",1680,1050,60,"block_R2S2","Probe_Measure",74,21,"Male","Right-handed",1248,1387,938,4,23,1,"57","0","0","0","0","0",1,"R","M","+ 100 ms",1,1,"+"
"2023-03-08","20:39:30","win","win10",968791880,"1680px","1050px",1680,1050,60,"block_R2S2","Probe_Measure",75,21,"Male","Right-handed",843,1387,938,4,23,-3,"57","0","0","0","0","0",1,"R","M","+ 100 ms",1,3,"-"
"2023-03-08","20:39:30","win","win10",968791880,"1680px","1050px",1680,1050,60,"block_R3S1","Probe_Measure",76,21,"Male","Right-handed",4800,1387,938,5,25,1,"0","0","0","0","0","0",1,"R","O","- 100 ms",0,1,"+"
"2023-03-08","20:39:30","win","win10",968791880,"1680px","1050px",1680,1050,60,"block_R2S1","Probe_Measure",77,21,"Male","Right-handed",908,1387,938,3,23,-3,"57","0","0","0","0","0",1,"R","M","- 100 ms",1,3,"-"
"2023-03-08","20:39:30","win","win10",968791880,"1680px","1050px",1680,1050,60,"block_R2S1","Probe_Measure",78,21,"Male","Right-handed",4800,1387,938,3,23,-1,"0","0","0","0","0","0",1,"R","M","- 100 ms",0,1,"-"
"2023-03-08","20:39:30","win","win10",968791880,"1680px","1050px",1680,1050,60,"block_W1S2","Probe_Measure",79,21,"Male","Right-handed",4800,1387,938,2,9,1,"0","0","0","0","0","0",1,"W","C","+ 100 ms",0,1,"+"
"2023-03-08","20:39:30","win","win10",968791880,"1680px","1050px",1680,1050,60,"block_R3S1","Probe_Measure",80,21,"Male","Right-handed",4800,1387,938,5,25,-1,"0","0","0","0","0","0",1,"R","O","- 100 ms",0,1,"-"
"2023-03-08","20:39:30","win","win10",968791880,"1680px","1050px",1680,1050,60,"block_R1S1","Probe_Measure",81,21,"Male","Right-handed",790,1387,938,1,21,-3,"57","0","0","0","0","0",1,"R","C","- 100 ms",1,3,"-"
"2023-03-08","20:39:30","win","win10",968791880,"1680px","1050px",1680,1050,60,"block_W3S1","Probe_Measure",82,21,"Male","Right-handed",2229,1387,938,5,5,1,"57","0","0","0","0","0",1,"W","O","- 100 ms",1,1,"+"
"2023-03-08","20:39:30","win","win10",968791880,"1680px","1050px",1680,1050,60,"block_R1S2","Probe_Measure",83,21,"Male","Right-handed",4800,1387,938,2,21,-1,"0","0","0","0","0","0",1,"R","C","+ 100 ms",0,1,"-"
"2023-03-08","20:39:30","win","win10",968791880,"1680px","1050px",1680,1050,60,"block_W2S2","Probe_Measure",84,21,"Male","Right-handed",806,1387,938,4,7,-1,"57","0","0","0","0","0",1,"W","M","+ 100 ms",1,1,"-"
"2023-03-08","20:39:30","win","win10",968791880,"1680px","1050px",1680,1050,60,"block_W1S1","Probe_Measure",85,21,"Male","Right-handed",1111,1387,938,1,9,-3,"57","0","0","0","0","0",1,"W","C","- 100 ms",1,3,"-"
"2023-03-08","20:39:30","win","win10",968791880,"1680px","1050px",1680,1050,60,"block_W2S1","Probe_Measure",86,21,"Male","Right-handed",4800,1387,938,3,7,-1,"0","0","0","0","0","0",1,"W","M","- 100 ms",0,1,"-"
"2023-03-08","20:39:30","win","win10",968791880,"1680px","1050px",1680,1050,60,"block_W2S1","Probe_Measure",87,21,"Male","Right-handed",4800,1387,938,3,7,3,"0","0","0","0","0","0",1,"W","M","- 100 ms",0,3,"+"
"2023-03-08","20:39:30","win","win10",968791880,"1680px","1050px",1680,1050,60,"block_R1S1","Probe_Measure",88,21,"Male","Right-handed",4800,1387,938,1,21,1,"0","0","0","0","0","0",1,"R","C","- 100 ms",0,1,"+"
"2023-03-08","20:39:30","win","win10",968791880,"1680px","1050px",1680,1050,60,"block_W2S2","Probe_Measure",89,21,"Male","Right-handed",4800,1387,938,4,7,1,"0","0","0","0","0","0",1,"W","M","+ 100 ms",0,1,"+"
"2023-03-08","20:39:30","win","win10",968791880,"1680px","1050px",1680,1050,60,"block_W1S2","Probe_Measure",90,21,"Male","Right-handed",620,1387,938,2,9,-1,"57","0","0","0","0","0",1,"W","C","+ 100 ms",1,1,"-"
"2023-03-08","20:39:30","win","win10",968791880,"1680px","1050px",1680,1050,60,"block_W1S1","Probe_Measure",91,21,"Male","Right-handed",851,1387,938,1,9,-1,"57","0","0","0","0","0",1,"W","C","- 100 ms",1,1,"-"
"2023-03-08","20:39:30","win","win10",968791880,"1680px","1050px",1680,1050,60,"block_W2S1","Probe_Measure",92,21,"Male","Right-handed",727,1387,938,3,7,-3,"57","0","0","0","0","0",1,"W","M","- 100 ms",1,3,"-"
"2023-03-08","20:39:30","win","win10",968791880,"1680px","1050px",1680,1050,60,"block_W3S2","Probe_Measure",93,21,"Male","Right-handed",4800,1387,938,6,5,-1,"0","0","0","0","0","0",1,"W","O","+ 100 ms",0,1,"-"
"2023-03-08","20:39:30","win","win10",968791880,"1680px","1050px",1680,1050,60,"block_W1S1","Probe_Measure",94,21,"Male","Right-handed",4800,1387,938,1,9,1,"0","0","0","0","0","0",1,"W","C","- 100 ms",0,1,"+"
"2023-03-08","20:39:30","win","win10",968791880,"1680px","1050px",1680,1050,60,"block_R3S2","Probe_Measure",95,21,"Male","Right-handed",4800,1387,938,6,25,-1,"0","0","0","0","0","0",1,"R","O","+ 100 ms",0,1,"-"
"2023-03-08","20:39:30","win","win10",968791880,"1680px","1050px",1680,1050,60,"block_R1S1","Probe_Measure",96,21,"Male","Right-handed",939,1387,938,1,21,3,"57","0","0","0","0","0",1,"R","C","- 100 ms",1,3,"+"
"2023-03-08","20:39:30","win","win10",968791880,"1680px","1050px",1680,1050,60,"block_W2S1","Probe_Measure",97,21,"Male","Right-handed",886,1387,938,3,7,3,"57","0","0","0","0","0",1,"W","M","- 100 ms",1,3,"+"
"2023-03-08","20:39:30","win","win10",968791880,"1680px","1050px",1680,1050,60,"block_R1S1","Probe_Measure",98,21,"Male","Right-handed",4800,1387,938,1,21,1,"0","0","0","0","0","0",1,"R","C","- 100 ms",0,1,"+"
"2023-03-08","20:39:30","win","win10",968791880,"1680px","1050px",1680,1050,60,"block_R1S1","Probe_Measure",99,21,"Male","Right-handed",721,1387,938,1,21,-1,"57","0","0","0","0","0",1,"R","C","- 100 ms",1,1,"-"
"2023-03-08","20:39:30","win","win10",968791880,"1680px","1050px",1680,1050,60,"block_W2S2","Probe_Measure",100,21,"Male","Right-handed",1059,1387,938,4,7,3,"57","0","0","0","0","0",1,"W","M","+ 100 ms",1,3,"+"
"2023-03-08","20:39:30","win","win10",968791880,"1680px","1050px",1680,1050,60,"block_R2S2","Probe_Measure",101,21,"Male","Right-handed",4800,1387,938,4,23,3,"0","0","0","0","0","0",1,"R","M","+ 100 ms",0,3,"+"
"2023-03-08","20:39:30","win","win10",968791880,"1680px","1050px",1680,1050,60,"block_W1S1","Probe_Measure",102,21,"Male","Right-handed",586,1387,938,1,9,3,"57","0","0","0","0","0",1,"W","C","- 100 ms",1,3,"+"
"2023-03-08","20:39:30","win","win10",968791880,"1680px","1050px",1680,1050,60,"block_R1S2","Probe_Measure",103,21,"Male","Right-handed",4800,1387,938,2,21,1,"0","0","0","0","0","0",1,"R","C","+ 100 ms",0,1,"+"
"2023-03-08","20:39:30","win","win10",968791880,"1680px","1050px",1680,1050,60,"block_W1S1","Probe_Measure",104,21,"Male","Right-handed",1934,1387,938,1,9,-1,"57","0","0","0","0","0",1,"W","C","- 100 ms",1,1,"-"
"2023-03-08","20:39:30","win","win10",968791880,"1680px","1050px",1680,1050,60,"block_R1S2","Probe_Measure",105,21,"Male","Right-handed",1004,1387,938,2,21,-3,"57","0","0","0","0","0",1,"R","C","+ 100 ms",1,3,"-"
"2023-03-08","20:39:30","win","win10",968791880,"1680px","1050px",1680,1050,60,"block_W3S2","Probe_Measure",106,21,"Male","Right-handed",1883,1387,938,6,5,-1,"57","0","0","0","0","0",1,"W","O","+ 100 ms",1,1,"-"
"2023-03-08","20:39:30","win","win10",968791880,"1680px","1050px",1680,1050,60,"block_R3S1","Probe_Measure",107,21,"Male","Right-handed",4800,1387,938,5,25,1,"0","0","0","0","0","0",1,"R","O","- 100 ms",0,1,"+"
"2023-03-08","20:39:30","win","win10",968791880,"1680px","1050px",1680,1050,60,"block_R2S2","Probe_Measure",108,21,"Male","Right-handed",4800,1387,938,4,23,1,"0","0","0","0","0","0",1,"R","M","+ 100 ms",0,1,"+"
"2023-03-08","20:39:30","win","win10",968791880,"1680px","1050px",1680,1050,60,"block_W1S2","Probe_Measure",109,21,"Male","Right-handed",4800,1387,938,2,9,-1,"0","0","0","0","0","0",1,"W","C","+ 100 ms",0,1,"-"
"2023-03-08","20:39:30","win","win10",968791880,"1680px","1050px",1680,1050,60,"block_R1S2","Probe_Measure",110,21,"Male","Right-handed",4800,1387,938,2,21,-1,"0","0","0","0","0","0",1,"R","C","+ 100 ms",0,1,"-"
"2023-03-08","20:39:30","win","win10",968791880,"1680px","1050px",1680,1050,60,"block_R1S1","Probe_Measure",111,21,"Male","Right-handed",2542,1387,938,1,21,3,"57","0","0","0","0","0",1,"R","C","- 100 ms",1,3,"+"
"2023-03-08","20:39:30","win","win10",968791880,"1680px","1050px",1680,1050,60,"block_W1S2","Probe_Measure",112,21,"Male","Right-handed",1363,1387,938,2,9,-3,"57","0","0","0","0","0",1,"W","C","+ 100 ms",1,3,"-"
"2023-03-08","20:39:30","win","win10",968791880,"1680px","1050px",1680,1050,60,"block_W3S2","Probe_Measure",113,21,"Male","Right-handed",4800,1387,938,6,5,1,"0","0","0","0","0","0",1,"W","O","+ 100 ms",0,1,"+"
"2023-03-08","20:39:30","win","win10",968791880,"1680px","1050px",1680,1050,60,"block_R2S1","Probe_Measure",114,21,"Male","Right-handed",4800,1387,938,3,23,1,"0","0","0","0","0","0",1,"R","M","- 100 ms",0,1,"+"
"2023-03-08","20:39:30","win","win10",968791880,"1680px","1050px",1680,1050,60,"block_R2S2","Probe_Measure",115,21,"Male","Right-handed",4800,1387,938,4,23,-1,"0","0","0","0","0","0",1,"R","M","+ 100 ms",0,1,"-"
"2023-03-08","20:39:30","win","win10",968791880,"1680px","1050px",1680,1050,60,"block_W2S1","Probe_Measure",116,21,"Male","Right-handed",788,1387,938,3,7,-3,"57","0","0","0","0","0",1,"W","M","- 100 ms",1,3,"-"
"2023-03-08","20:39:30","win","win10",968791880,"1680px","1050px",1680,1050,60,"block_W1S2","Probe_Measure",117,21,"Male","Right-handed",782,1387,938,2,9,3,"57","0","0","0","0","0",1,"W","C","+ 100 ms",1,3,"+"
"2023-03-08","20:39:30","win","win10",968791880,"1680px","1050px",1680,1050,60,"block_R3S2","Probe_Measure",118,21,"Male","Right-handed",4800,1387,938,6,25,-1,"0","0","0","0","0","0",1,"R","O","+ 100 ms",0,1,"-"
"2023-03-08","20:39:30","win","win10",968791880,"1680px","1050px",1680,1050,60,"block_R3S1","Probe_Measure",119,21,"Male","Right-handed",4800,1387,938,5,25,3,"0","0","0","0","0","0",1,"R","O","- 100 ms",0,3,"+"
"2023-03-08","20:39:30","win","win10",968791880,"1680px","1050px",1680,1050,60,"block_R2S1","Probe_Measure",120,21,"Male","Right-handed",4800,1387,938,3,23,-1,"0","0","0","0","0","0",1,"R","M","- 100 ms",0,1,"-"
"2023-03-08","20:39:30","win","win10",968791880,"1680px","1050px",1680,1050,60,"block_R1S2","Probe_Measure",121,21,"Male","Right-handed",4800,1387,938,2,21,3,"0","0","0","0","0","0",1,"R","C","+ 100 ms",0,3,"+"
"2023-03-08","20:39:30","win","win10",968791880,"1680px","1050px",1680,1050,60,"block_R3S2","Probe_Measure",122,21,"Male","Right-handed",824,1387,938,6,25,-3,"57","0","0","0","0","0",1,"R","O","+ 100 ms",1,3,"-"
"2023-03-08","20:39:30","win","win10",968791880,"1680px","1050px",1680,1050,60,"block_R2S1","Probe_Measure",123,21,"Male","Right-handed",643,1387,938,3,23,-3,"57","0","0","0","0","0",1,"R","M","- 100 ms",1,3,"-"
"2023-03-08","20:39:30","win","win10",968791880,"1680px","1050px",1680,1050,60,"block_W2S2","Probe_Measure",124,21,"Male","Right-handed",1936,1387,938,4,7,-1,"57","0","0","0","0","0",1,"W","M","+ 100 ms",1,1,"-"
"2023-03-08","20:39:30","win","win10",968791880,"1680px","1050px",1680,1050,60,"block_W2S2","Probe_Measure",125,21,"Male","Right-handed",4800,1387,938,4,7,1,"0","0","0","0","0","0",1,"W","M","+ 100 ms",0,1,"+"
"2023-03-08","20:39:30","win","win10",968791880,"1680px","1050px",1680,1050,60,"block_R2S1","Probe_Measure",126,21,"Male","Right-handed",1094,1387,938,3,23,3,"57","0","0","0","0","0",1,"R","M","- 100 ms",1,3,"+"
"2023-03-08","20:39:30","win","win10",968791880,"1680px","1050px",1680,1050,60,"block_W1S1","Probe_Measure",127,21,"Male","Right-handed",4800,1387,938,1,9,1,"0","0","0","0","0","0",1,"W","C","- 100 ms",0,1,"+"
"2023-03-08","20:39:30","win","win10",968791880,"1680px","1050px",1680,1050,60,"block_W3S1","Probe_Measure",128,21,"Male","Right-handed",4800,1387,938,5,5,1,"0","0","0","0","0","0",1,"W","O","- 100 ms",0,1,"+"
"2023-03-08","20:39:30","win","win10",968791880,"1680px","1050px",1680,1050,60,"block_R2S2","Probe_Measure",129,21,"Male","Right-handed",778,1387,938,4,23,-3,"57","0","0","0","0","0",1,"R","M","+ 100 ms",1,3,"-"
"2023-03-08","20:39:30","win","win10",968791880,"1680px","1050px",1680,1050,60,"block_W3S1","Probe_Measure",130,21,"Male","Right-handed",2927,1387,938,5,5,3,"57","0","0","0","0","0",1,"W","O","- 100 ms",1,3,"+"
"2023-03-08","20:39:30","win","win10",968791880,"1680px","1050px",1680,1050,60,"block_W2S1","Probe_Measure",131,21,"Male","Right-handed",4800,1387,938,3,7,1,"0","0","0","0","0","0",1,"W","M","- 100 ms",0,1,"+"
"2023-03-08","20:39:30","win","win10",968791880,"1680px","1050px",1680,1050,60,"block_W2S2","Probe_Measure",132,21,"Male","Right-handed",610,1387,938,4,7,-3,"57","0","0","0","0","0",1,"W","M","+ 100 ms",1,3,"-"
"2023-03-08","20:39:30","win","win10",968791880,"1680px","1050px",1680,1050,60,"block_W3S2","Probe_Measure",133,21,"Male","Right-handed",587,1387,938,6,5,-3,"57","0","0","0","0","0",1,"W","O","+ 100 ms",1,3,"-"
"2023-03-08","20:39:30","win","win10",968791880,"1680px","1050px",1680,1050,60,"block_W3S1","Probe_Measure",134,21,"Male","Right-handed",831,1387,938,5,5,-3,"57","0","0","0","0","0",1,"W","O","- 100 ms",1,3,"-"
"2023-03-08","20:39:30","win","win10",968791880,"1680px","1050px",1680,1050,60,"block_W3S1","Probe_Measure",135,21,"Male","Right-handed",4800,1387,938,5,5,-1,"0","0","0","0","0","0",1,"W","O","- 100 ms",0,1,"-"
"2023-03-08","20:39:30","win","win10",968791880,"1680px","1050px",1680,1050,60,"block_R3S2","Probe_Measure",136,21,"Male","Right-handed",4800,1387,938,6,25,1,"0","0","0","0","0","0",1,"R","O","+ 100 ms",0,1,"+"
"2023-03-08","20:39:30","win","win10",968791880,"1680px","1050px",1680,1050,60,"block_R1S1","Probe_Measure",137,21,"Male","Right-handed",575,1387,938,1,21,-3,"57","0","0","0","0","0",1,"R","C","- 100 ms",1,3,"-"
"2023-03-08","20:39:30","win","win10",968791880,"1680px","1050px",1680,1050,60,"block_W1S1","Probe_Measure",138,21,"Male","Right-handed",489,1387,938,1,9,-3,"57","0","0","0","0","0",1,"W","C","- 100 ms",1,3,"-"
"2023-03-08","20:39:30","win","win10",968791880,"1680px","1050px",1680,1050,60,"block_W3S2","Probe_Measure",139,21,"Male","Right-handed",4800,1387,938,6,5,3,"0","0","0","0","0","0",1,"W","O","+ 100 ms",0,3,"+"
"2023-03-08","20:39:30","win","win10",968791880,"1680px","1050px",1680,1050,60,"block_R3S1","Probe_Measure",140,21,"Male","Right-handed",4800,1387,938,5,25,-1,"0","0","0","0","0","0",1,"R","O","- 100 ms",0,1,"-"
"2023-03-08","20:39:30","win","win10",968791880,"1680px","1050px",1680,1050,60,"block_W2S1","Probe_Measure",141,21,"Male","Right-handed",4800,1387,938,3,7,-1,"0","0","0","0","0","0",1,"W","M","- 100 ms",0,1,"-"
"2023-03-08","20:39:30","win","win10",968791880,"1680px","1050px",1680,1050,60,"block_W1S2","Probe_Measure",142,21,"Male","Right-handed",4800,1387,938,2,9,1,"0","0","0","0","0","0",1,"W","C","+ 100 ms",0,1,"+"
"2023-03-08","20:39:30","win","win10",968791880,"1680px","1050px",1680,1050,60,"block_R3S1","Probe_Measure",143,21,"Male","Right-handed",4800,1387,938,5,25,-3,"0","0","0","0","0","0",1,"R","O","- 100 ms",0,3,"-"
"2023-03-08","20:39:30","win","win10",968791880,"1680px","1050px",1680,1050,60,"block_R3S2","Probe_Measure",144,21,"Male","Right-handed",4800,1387,938,6,25,3,"0","0","0","0","0","0",1,"R","O","+ 100 ms",0,3,"+"
"2023-03-08","20:39:30","win","win10",968791880,"1680px","1050px",1680,1050,60,"block_R2S2","Probe_Measure",145,21,"Male","Right-handed",542,1387,938,4,23,-1,"57","0","0","0","0","0",1,"R","M","+ 100 ms",1,1,"-"
"2023-03-08","20:39:30","win","win10",968791880,"1680px","1050px",1680,1050,60,"block_R1S1","Probe_Measure",146,21,"Male","Right-handed",683,1387,938,1,21,3,"57","0","0","0","0","0",1,"R","C","- 100 ms",1,3,"+"
"2023-03-08","20:39:30","win","win10",968791880,"1680px","1050px",1680,1050,60,"block_R2S2","Probe_Measure",147,21,"Male","Right-handed",4800,1387,938,4,23,1,"0","0","0","0","0","0",1,"R","M","+ 100 ms",0,1,"+"
"2023-03-08","20:39:30","win","win10",968791880,"1680px","1050px",1680,1050,60,"block_W1S1","Probe_Measure",148,21,"Male","Right-handed",649,1387,938,1,9,3,"57","0","0","0","0","0",1,"W","C","- 100 ms",1,3,"+"
"2023-03-08","20:39:30","win","win10",968791880,"1680px","1050px",1680,1050,60,"block_R2S1","Probe_Measure",149,21,"Male","Right-handed",933,1387,938,3,23,3,"57","0","0","0","0","0",1,"R","M","- 100 ms",1,3,"+"
"2023-03-08","20:39:30","win","win10",968791880,"1680px","1050px",1680,1050,60,"block_W2S1","Probe_Measure",150,21,"Male","Right-handed",699,1387,938,3,7,-3,"57","0","0","0","0","0",1,"W","M","- 100 ms",1,3,"-"
"2023-03-08","20:39:30","win","win10",968791880,"1680px","1050px",1680,1050,60,"block_R1S2","Probe_Measure",151,21,"Male","Right-handed",1370,1387,938,2,21,-1,"57","0","0","0","0","0",1,"R","C","+ 100 ms",1,1,"-"
"2023-03-08","20:39:30","win","win10",968791880,"1680px","1050px",1680,1050,60,"block_R3S1","Probe_Measure",152,21,"Male","Right-handed",4800,1387,938,5,25,3,"0","0","0","0","0","0",1,"R","O","- 100 ms",0,3,"+"
"2023-03-08","20:39:30","win","win10",968791880,"1680px","1050px",1680,1050,60,"block_R1S1","Probe_Measure",153,21,"Male","Right-handed",905,1387,938,1,21,-1,"57","0","0","0","0","0",1,"R","C","- 100 ms",1,1,"-"
"2023-03-08","20:39:30","win","win10",968791880,"1680px","1050px",1680,1050,60,"block_W1S2","Probe_Measure",154,21,"Male","Right-handed",730,1387,938,2,9,-3,"57","0","0","0","0","0",1,"W","C","+ 100 ms",1,3,"-"
"2023-03-08","20:39:30","win","win10",968791880,"1680px","1050px",1680,1050,60,"block_R2S2","Probe_Measure",155,21,"Male","Right-handed",1521,1387,938,4,23,3,"57","0","0","0","0","0",1,"R","M","+ 100 ms",1,3,"+"
"2023-03-08","20:39:30","win","win10",968791880,"1680px","1050px",1680,1050,60,"block_W3S1","Probe_Measure",156,21,"Male","Right-handed",1130,1387,938,5,5,1,"57","0","0","0","0","0",1,"W","O","- 100 ms",1,1,"+"
"2023-03-08","20:39:30","win","win10",968791880,"1680px","1050px",1680,1050,60,"block_W2S2","Probe_Measure",157,21,"Male","Right-handed",711,1387,938,4,7,-3,"57","0","0","0","0","0",1,"W","M","+ 100 ms",1,3,"-"
"2023-03-08","20:39:30","win","win10",968791880,"1680px","1050px",1680,1050,60,"block_R3S2","Probe_Measure",158,21,"Male","Right-handed",1133,1387,938,6,25,3,"57","0","0","0","0","0",1,"R","O","+ 100 ms",1,3,"+"
"2023-03-08","20:39:30","win","win10",968791880,"1680px","1050px",1680,1050,60,"block_W1S2","Probe_Measure",159,21,"Male","Right-handed",738,1387,938,2,9,3,"57","0","0","0","0","0",1,"W","C","+ 100 ms",1,3,"+"
"2023-03-08","20:39:30","win","win10",968791880,"1680px","1050px",1680,1050,60,"block_W3S1","Probe_Measure",160,21,"Male","Right-handed",4800,1387,938,5,5,-1,"0","0","0","0","0","0",1,"W","O","- 100 ms",0,1,"-"
"2023-03-08","20:39:30","win","win10",968791880,"1680px","1050px",1680,1050,60,"block_R2S1","Probe_Measure",161,21,"Male","Right-handed",1332,1387,938,3,23,-1,"57","0","0","0","0","0",1,"R","M","- 100 ms",1,1,"-"
"2023-03-08","20:39:30","win","win10",968791880,"1680px","1050px",1680,1050,60,"block_R1S1","Probe_Measure",162,21,"Male","Right-handed",517,1387,938,1,21,-3,"57","0","0","0","0","0",1,"R","C","- 100 ms",1,3,"-"
"2023-03-08","20:39:30","win","win10",968791880,"1680px","1050px",1680,1050,60,"block_R2S1","Probe_Measure",163,21,"Male","Right-handed",580,1387,938,3,23,-3,"57","0","0","0","0","0",1,"R","M","- 100 ms",1,3,"-"
"2023-03-08","20:39:30","win","win10",968791880,"1680px","1050px",1680,1050,60,"block_W3S2","Probe_Measure",164,21,"Male","Right-handed",1283,1387,938,6,5,3,"57","0","0","0","0","0",1,"W","O","+ 100 ms",1,3,"+"
"2023-03-08","20:39:30","win","win10",968791880,"1680px","1050px",1680,1050,60,"block_R1S2","Probe_Measure",165,21,"Male","Right-handed",4800,1387,938,2,21,1,"0","0","0","0","0","0",1,"R","C","+ 100 ms",0,1,"+"
"2023-03-08","20:39:30","win","win10",968791880,"1680px","1050px",1680,1050,60,"block_W2S1","Probe_Measure",166,21,"Male","Right-handed",4800,1387,938,3,7,1,"0","0","0","0","0","0",1,"W","M","- 100 ms",0,1,"+"
"2023-03-08","20:39:30","win","win10",968791880,"1680px","1050px",1680,1050,60,"block_R3S1","Probe_Measure",167,21,"Male","Right-handed",4800,1387,938,5,25,-1,"0","0","0","0","0","0",1,"R","O","- 100 ms",0,1,"-"
"2023-03-08","20:39:30","win","win10",968791880,"1680px","1050px",1680,1050,60,"block_W3S2","Probe_Measure",168,21,"Male","Right-handed",786,1387,938,6,5,-3,"57","0","0","0","0","0",1,"W","O","+ 100 ms",1,3,"-"
"2023-03-08","20:39:30","win","win10",968791880,"1680px","1050px",1680,1050,60,"block_W3S2","Probe_Measure",169,21,"Male","Right-handed",4800,1387,938,6,5,1,"0","0","0","0","0","0",1,"W","O","+ 100 ms",0,1,"+"
"2023-03-08","20:39:30","win","win10",968791880,"1680px","1050px",1680,1050,60,"block_W3S1","Probe_Measure",170,21,"Male","Right-handed",1236,1387,938,5,5,3,"57","0","0","0","0","0",1,"W","O","- 100 ms",1,3,"+"
"2023-03-08","20:39:30","win","win10",968791880,"1680px","1050px",1680,1050,60,"block_R2S2","Probe_Measure",171,21,"Male","Right-handed",692,1387,938,4,23,-3,"57","0","0","0","0","0",1,"R","M","+ 100 ms",1,3,"-"
"2023-03-08","20:39:30","win","win10",968791880,"1680px","1050px",1680,1050,60,"block_W2S2","Probe_Measure",172,21,"Male","Right-handed",932,1387,938,4,7,-1,"57","0","0","0","0","0",1,"W","M","+ 100 ms",1,1,"-"
"2023-03-08","20:39:30","win","win10",968791880,"1680px","1050px",1680,1050,60,"block_R3S2","Probe_Measure",173,21,"Male","Right-handed",4800,1387,938,6,25,-1,"0","0","0","0","0","0",1,"R","O","+ 100 ms",0,1,"-"
"2023-03-08","20:39:30","win","win10",968791880,"1680px","1050px",1680,1050,60,"block_W3S2","Probe_Measure",174,21,"Male","Right-handed",1447,1387,938,6,5,-1,"57","0","0","0","0","0",1,"W","O","+ 100 ms",1,1,"-"
"2023-03-08","20:39:30","win","win10",968791880,"1680px","1050px",1680,1050,60,"block_R3S1","Probe_Measure",175,21,"Male","Right-handed",4800,1387,938,5,25,1,"0","0","0","0","0","0",1,"R","O","- 100 ms",0,1,"+"
"2023-03-08","20:39:30","win","win10",968791880,"1680px","1050px",1680,1050,60,"block_W1S2","Probe_Measure",176,21,"Male","Right-handed",4800,1387,938,2,9,1,"0","0","0","0","0","0",1,"W","C","+ 100 ms",0,1,"+"
"2023-03-08","20:39:30","win","win10",968791880,"1680px","1050px",1680,1050,60,"block_W2S2","Probe_Measure",177,21,"Male","Right-handed",4800,1387,938,4,7,3,"0","0","0","0","0","0",1,"W","M","+ 100 ms",0,3,"+"
"2023-03-08","20:39:30","win","win10",968791880,"1680px","1050px",1680,1050,60,"block_W2S1","Probe_Measure",178,21,"Male","Right-handed",952,1387,938,3,7,3,"57","0","0","0","0","0",1,"W","M","- 100 ms",1,3,"+"
"2023-03-08","20:39:30","win","win10",968791880,"1680px","1050px",1680,1050,60,"block_R3S2","Probe_Measure",179,21,"Male","Right-handed",938,1387,938,6,25,-3,"57","0","0","0","0","0",1,"R","O","+ 100 ms",1,3,"-"
"2023-03-08","20:39:30","win","win10",968791880,"1680px","1050px",1680,1050,60,"block_W3S1","Probe_Measure",180,21,"Male","Right-handed",1132,1387,938,5,5,-3,"57","0","0","0","0","0",1,"W","O","- 100 ms",1,3,"-"
"2023-03-08","20:39:30","win","win10",968791880,"1680px","1050px",1680,1050,60,"block_R3S1","Probe_Measure",181,21,"Male","Right-handed",1098,1387,938,5,25,-3,"57","0","0","0","0","0",1,"R","O","- 100 ms",1,3,"-"
"2023-03-08","20:39:30","win","win10",968791880,"1680px","1050px",1680,1050,60,"block_W2S1","Probe_Measure",182,21,"Male","Right-handed",951,1387,938,3,7,-1,"57","0","0","0","0","0",1,"W","M","- 100 ms",1,1,"-"
"2023-03-08","20:39:30","win","win10",968791880,"1680px","1050px",1680,1050,60,"block_R1S1","Probe_Measure",183,21,"Male","Right-handed",4800,1387,938,1,21,1,"0","0","0","0","0","0",1,"R","C","- 100 ms",0,1,"+"
"2023-03-08","20:39:30","win","win10",968791880,"1680px","1050px",1680,1050,60,"block_W1S2","Probe_Measure",184,21,"Male","Right-handed",4800,1387,938,2,9,-1,"0","0","0","0","0","0",1,"W","C","+ 100 ms",0,1,"-"
"2023-03-08","20:39:30","win","win10",968791880,"1680px","1050px",1680,1050,60,"block_W1S1","Probe_Measure",185,21,"Male","Right-handed",1380,1387,938,1,9,-1,"57","0","0","0","0","0",1,"W","C","- 100 ms",1,1,"-"
"2023-03-08","20:39:30","win","win10",968791880,"1680px","1050px",1680,1050,60,"block_R2S1","Probe_Measure",186,21,"Male","Right-handed",4800,1387,938,3,23,1,"0","0","0","0","0","0",1,"R","M","- 100 ms",0,1,"+"
"2023-03-08","20:39:30","win","win10",968791880,"1680px","1050px",1680,1050,60,"block_W2S2","Probe_Measure",187,21,"Male","Right-handed",4800,1387,938,4,7,1,"0","0","0","0","0","0",1,"W","M","+ 100 ms",0,1,"+"
"2023-03-08","20:39:30","win","win10",968791880,"1680px","1050px",1680,1050,60,"block_W1S1","Probe_Measure",188,21,"Male","Right-handed",1102,1387,938,1,9,1,"57","0","0","0","0","0",1,"W","C","- 100 ms",1,1,"+"
"2023-03-08","20:39:30","win","win10",968791880,"1680px","1050px",1680,1050,60,"block_W1S1","Probe_Measure",189,21,"Male","Right-handed",738,1387,938,1,9,-3,"57","0","0","0","0","0",1,"W","C","- 100 ms",1,3,"-"
"2023-03-08","20:39:30","win","win10",968791880,"1680px","1050px",1680,1050,60,"block_R1S2","Probe_Measure",190,21,"Male","Right-handed",1376,1387,938,2,21,3,"57","0","0","0","0","0",1,"R","C","+ 100 ms",1,3,"+"
"2023-03-08","20:39:30","win","win10",968791880,"1680px","1050px",1680,1050,60,"block_R3S2","Probe_Measure",191,21,"Male","Right-handed",4800,1387,938,6,25,1,"0","0","0","0","0","0",1,"R","O","+ 100 ms",0,1,"+"
"2023-03-08","20:39:30","win","win10",968791880,"1680px","1050px",1680,1050,60,"block_R1S2","Probe_Measure",192,21,"Male","Right-handed",779,1387,938,2,21,-3,"57","0","0","0","0","0",1,"R","C","+ 100 ms",1,3,"-"
"2023-03-08","20:39:30","win","win10",968791880,"1680px","1050px",1680,1050,60,"block_R3S2","Probe_Measure",193,21,"Male","Right-handed",865,1387,938,6,25,-1,"57","0","0","0","0","0",1,"R","O","+ 100 ms",1,1,"-"
"2023-03-08","20:39:30","win","win10",968791880,"1680px","1050px",1680,1050,60,"block_R2S2","Probe_Measure",194,21,"Male","Right-handed",2360,1387,938,4,23,3,"57","0","0","0","0","0",1,"R","M","+ 100 ms",1,3,"+"
"2023-03-08","20:39:30","win","win10",968791880,"1680px","1050px",1680,1050,60,"block_R2S2","Probe_Measure",195,21,"Male","Right-handed",769,1387,938,4,23,-1,"57","0","0","0","0","0",1,"R","M","+ 100 ms",1,1,"-"
"2023-03-08","20:39:30","win","win10",968791880,"1680px","1050px",1680,1050,60,"block_W2S2","Probe_Measure",196,21,"Male","Right-handed",4800,1387,938,4,7,-1,"0","0","0","0","0","0",1,"W","M","+ 100 ms",0,1,"-"
"2023-03-08","20:39:30","win","win10",968791880,"1680px","1050px",1680,1050,60,"block_W2S1","Probe_Measure",197,21,"Male","Right-handed",4800,1387,938,3,7,1,"0","0","0","0","0","0",1,"W","M","- 100 ms",0,1,"+"
"2023-03-08","20:39:30","win","win10",968791880,"1680px","1050px",1680,1050,60,"block_W3S1","Probe_Measure",198,21,"Male","Right-handed",1065,1387,938,5,5,3,"57","0","0","0","0","0",1,"W","O","- 100 ms",1,3,"+"
"2023-03-08","20:39:30","win","win10",968791880,"1680px","1050px",1680,1050,60,"block_W1S2","Probe_Measure",199,21,"Male","Right-handed",4800,1387,938,2,9,3,"0","0","0","0","0","0",1,"W","C","+ 100 ms",0,3,"+"
"2023-03-08","20:39:30","win","win10",968791880,"1680px","1050px",1680,1050,60,"block_W1S1","Probe_Measure",200,21,"Male","Right-handed",783,1387,938,1,9,-1,"57","0","0","0","0","0",1,"W","C","- 100 ms",1,1,"-"
"2023-03-08","20:39:30","win","win10",968791880,"1680px","1050px",1680,1050,60,"block_R1S2","Probe_Measure",201,21,"Male","Right-handed",4800,1387,938,2,21,1,"0","0","0","0","0","0",1,"R","C","+ 100 ms",0,1,"+"
"2023-03-08","20:39:30","win","win10",968791880,"1680px","1050px",1680,1050,60,"block_R3S1","Probe_Measure",202,21,"Male","Right-handed",4800,1387,938,5,25,3,"0","0","0","0","0","0",1,"R","O","- 100 ms",0,3,"+"
"2023-03-08","20:39:30","win","win10",968791880,"1680px","1050px",1680,1050,60,"block_W2S1","Probe_Measure",203,21,"Male","Right-handed",728,1387,938,3,7,-3,"57","0","0","0","0","0",1,"W","M","- 100 ms",1,3,"-"
"2023-03-08","20:39:30","win","win10",968791880,"1680px","1050px",1680,1050,60,"block_R3S2","Probe_Measure",204,21,"Male","Right-handed",4800,1387,938,6,25,3,"0","0","0","0","0","0",1,"R","O","+ 100 ms",0,3,"+"
"2023-03-08","20:39:30","win","win10",968791880,"1680px","1050px",1680,1050,60,"block_W3S2","Probe_Measure",205,21,"Male","Right-handed",4800,1387,938,6,5,3,"0","0","0","0","0","0",1,"W","O","+ 100 ms",0,3,"+"
"2023-03-08","20:39:30","win","win10",968791880,"1680px","1050px",1680,1050,60,"block_W2S2","Probe_Measure",206,21,"Male","Right-handed",893,1387,938,4,7,-3,"57","0","0","0","0","0",1,"W","M","+ 100 ms",1,3,"-"
"2023-03-08","20:39:30","win","win10",968791880,"1680px","1050px",1680,1050,60,"block_W3S1","Probe_Measure",207,21,"Male","Right-handed",4800,1387,938,5,5,1,"0","0","0","0","0","0",1,"W","O","- 100 ms",0,1,"+"
"2023-03-08","20:39:30","win","win10",968791880,"1680px","1050px",1680,1050,60,"block_W1S2","Probe_Measure",208,21,"Male","Right-handed",693,1387,938,2,9,-1,"57","0","0","0","0","0",1,"W","C","+ 100 ms",1,1,"-"
"2023-03-08","20:39:30","win","win10",968791880,"1680px","1050px",1680,1050,60,"block_W3S1","Probe_Measure",209,21,"Male","Right-handed",2078,1387,938,5,5,-1,"57","0","0","0","0","0",1,"W","O","- 100 ms",1,1,"-"
"2023-03-08","20:39:30","win","win10",968791880,"1680px","1050px",1680,1050,60,"block_R2S1","Probe_Measure",210,21,"Male","Right-handed",4800,1387,938,3,23,1,"0","0","0","0","0","0",1,"R","M","- 100 ms",0,1,"+"
"2023-03-08","20:39:30","win","win10",968791880,"1680px","1050px",1680,1050,60,"block_W1S1","Probe_Measure",211,21,"Male","Right-handed",4800,1387,938,1,9,3,"0","0","0","0","0","0",1,"W","C","- 100 ms",0,3,"+"
"2023-03-08","20:39:30","win","win10",968791880,"1680px","1050px",1680,1050,60,"block_R1S1","Probe_Measure",212,21,"Male","Right-handed",781,1387,938,1,21,-3,"57","0","0","0","0","0",1,"R","C","- 100 ms",1,3,"-"
"2023-03-08","20:39:30","win","win10",968791880,"1680px","1050px",1680,1050,60,"block_R1S1","Probe_Measure",213,21,"Male","Right-handed",1337,1387,938,1,21,3,"57","0","0","0","0","0",1,"R","C","- 100 ms",1,3,"+"
"2023-03-08","20:39:30","win","win10",968791880,"1680px","1050px",1680,1050,60,"block_R1S2","Probe_Measure",214,21,"Male","Right-handed",727,1387,938,2,21,-1,"57","0","0","0","0","0",1,"R","C","+ 100 ms",1,1,"-"
"2023-03-08","20:39:30","win","win10",968791880,"1680px","1050px",1680,1050,60,"block_W2S2","Probe_Measure",215,21,"Male","Right-handed",4800,1387,938,4,7,1,"0","0","0","0","0","0",1,"W","M","+ 100 ms",0,1,"+"
"2023-03-08","20:39:30","win","win10",968791880,"1680px","1050px",1680,1050,60,"block_R1S2","Probe_Measure",216,21,"Male","Right-handed",661,1387,938,2,21,-3,"57","0","0","0","0","0",1,"R","C","+ 100 ms",1,3,"-"
"2023-03-08","20:39:30","win","win10",968791880,"1680px","1050px",1680,1050,60,"block_W1S2","Probe_Measure",217,21,"Male","Right-handed",4800,1387,938,2,9,1,"0","0","0","0","0","0",1,"W","C","+ 100 ms",0,1,"+"
"2023-03-08","20:39:30","win","win10",968791880,"1680px","1050px",1680,1050,60,"block_R2S1","Probe_Measure",218,21,"Male","Right-handed",1306,1387,938,3,23,-1,"57","0","0","0","0","0",1,"R","M","- 100 ms",1,1,"-"
"2023-03-08","20:39:30","win","win10",968791880,"1680px","1050px",1680,1050,60,"block_R2S2","Probe_Measure",219,21,"Male","Right-handed",655,1387,938,4,23,-3,"57","0","0","0","0","0",1,"R","M","+ 100 ms",1,3,"-"
"2023-03-08","20:39:30","win","win10",968791880,"1680px","1050px",1680,1050,60,"block_R3S2","Probe_Measure",220,21,"Male","Right-handed",4800,1387,938,6,25,1,"0","0","0","0","0","0",1,"R","O","+ 100 ms",0,1,"+"
"2023-03-08","20:39:30","win","win10",968791880,"1680px","1050px",1680,1050,60,"block_R1S1","Probe_Measure",221,21,"Male","Right-handed",4800,1387,938,1,21,-1,"0","0","0","0","0","0",1,"R","C","- 100 ms",0,1,"-"
"2023-03-08","20:39:30","win","win10",968791880,"1680px","1050px",1680,1050,60,"block_R3S2","Probe_Measure",222,21,"Male","Right-handed",534,1387,938,6,25,-3,"57","0","0","0","0","0",1,"R","O","+ 100 ms",1,3,"-"
"2023-03-08","20:39:30","win","win10",968791880,"1680px","1050px",1680,1050,60,"block_W2S1","Probe_Measure",223,21,"Male","Right-handed",1108,1387,938,3,7,-1,"57","0","0","0","0","0",1,"W","M","- 100 ms",1,1,"-"
"2023-03-08","20:39:30","win","win10",968791880,"1680px","1050px",1680,1050,60,"block_R3S1","Probe_Measure",224,21,"Male","Right-handed",4800,1387,938,5,25,-1,"0","0","0","0","0","0",1,"R","O","- 100 ms",0,1,"-"
"2023-03-08","20:39:30","win","win10",968791880,"1680px","1050px",1680,1050,60,"block_W1S1","Probe_Measure",225,21,"Male","Right-handed",4800,1387,938,1,9,1,"0","0","0","0","0","0",1,"W","C","- 100 ms",0,1,"+"
"2023-03-08","20:39:30","win","win10",968791880,"1680px","1050px",1680,1050,60,"block_R1S1","Probe_Measure",226,21,"Male","Right-handed",4800,1387,938,1,21,1,"0","0","0","0","0","0",1,"R","C","- 100 ms",0,1,"+"
"2023-03-08","20:39:30","win","win10",968791880,"1680px","1050px",1680,1050,60,"block_R2S2","Probe_Measure",227,21,"Male","Right-handed",4800,1387,938,4,23,1,"0","0","0","0","0","0",1,"R","M","+ 100 ms",0,1,"+"
"2023-03-08","20:39:30","win","win10",968791880,"1680px","1050px",1680,1050,60,"block_W3S2","Probe_Measure",228,21,"Male","Right-handed",4800,1387,938,6,5,1,"0","0","0","0","0","0",1,"W","O","+ 100 ms",0,1,"+"
"2023-03-08","20:39:30","win","win10",968791880,"1680px","1050px",1680,1050,60,"block_W3S1","Probe_Measure",229,21,"Male","Right-handed",890,1387,938,5,5,-3,"57","0","0","0","0","0",1,"W","O","- 100 ms",1,3,"-"
"2023-03-08","20:39:30","win","win10",968791880,"1680px","1050px",1680,1050,60,"block_W3S2","Probe_Measure",230,21,"Male","Right-handed",4800,1387,938,6,5,-1,"0","0","0","0","0","0",1,"W","O","+ 100 ms",0,1,"-"
"2023-03-08","20:39:30","win","win10",968791880,"1680px","1050px",1680,1050,60,"block_W1S2","Probe_Measure",231,21,"Male","Right-handed",707,1387,938,2,9,-3,"57","0","0","0","0","0",1,"W","C","+ 100 ms",1,3,"-"
"2023-03-08","20:39:30","win","win10",968791880,"1680px","1050px",1680,1050,60,"block_R1S2","Probe_Measure",232,21,"Male","Right-handed",848,1387,938,2,21,3,"57","0","0","0","0","0",1,"R","C","+ 100 ms",1,3,"+"
"2023-03-08","20:39:30","win","win10",968791880,"1680px","1050px",1680,1050,60,"block_W2S1","Probe_Measure",233,21,"Male","Right-handed",4800,1387,938,3,7,3,"0","0","0","0","0","0",1,"W","M","- 100 ms",0,3,"+"
"2023-03-08","20:39:30","win","win10",968791880,"1680px","1050px",1680,1050,60,"block_W3S2","Probe_Measure",234,21,"Male","Right-handed",865,1387,938,6,5,-3,"57","0","0","0","0","0",1,"W","O","+ 100 ms",1,3,"-"
"2023-03-08","20:39:30","win","win10",968791880,"1680px","1050px",1680,1050,60,"block_R3S1","Probe_Measure",235,21,"Male","Right-handed",4800,1387,938,5,25,1,"0","0","0","0","0","0",1,"R","O","- 100 ms",0,1,"+"
"2023-03-08","20:39:30","win","win10",968791880,"1680px","1050px",1680,1050,60,"block_R3S1","Probe_Measure",236,21,"Male","Right-handed",754,1387,938,5,25,-3,"57","0","0","0","0","0",1,"R","O","- 100 ms",1,3,"-"
"2023-03-08","20:39:30","win","win10",968791880,"1680px","1050px",1680,1050,60,"block_R2S1","Probe_Measure",237,21,"Male","Right-handed",4800,1387,938,3,23,3,"0","0","0","0","0","0",1,"R","M","- 100 ms",0,3,"+"
"2023-03-08","20:39:30","win","win10",968791880,"1680px","1050px",1680,1050,60,"block_W2S2","Probe_Measure",238,21,"Male","Right-handed",1309,1387,938,4,7,3,"57","0","0","0","0","0",1,"W","M","+ 100 ms",1,3,"+"
"2023-03-08","20:39:30","win","win10",968791880,"1680px","1050px",1680,1050,60,"block_R2S1","Probe_Measure",239,21,"Male","Right-handed",617,1387,938,3,23,-3,"57","0","0","0","0","0",1,"R","M","- 100 ms",1,3,"-"
"2023-03-08","20:39:30","win","win10",968791880,"1680px","1050px",1680,1050,60,"block_W1S1","Probe_Measure",240,21,"Male","Right-handed",1339,1387,938,1,9,-3,"57","0","0","0","0","0",1,"W","C","- 100 ms",1,3,"-"
"2023-03-08","20:39:30","win","win10",968791880,"1680px","1050px",1680,1050,60,"block_R1S1","Probe_Measure",241,21,"Male","Right-handed",613,1387,938,1,21,-3,"57","0","0","0","0","0",1,"R","C","- 100 ms",1,3,"-"
"2023-03-08","20:39:30","win","win10",968791880,"1680px","1050px",1680,1050,60,"block_W1S2","Probe_Measure",242,21,"Male","Right-handed",1197,1387,938,2,9,-1,"57","0","0","0","0","0",1,"W","C","+ 100 ms",1,1,"-"
"2023-03-08","20:39:30","win","win10",968791880,"1680px","1050px",1680,1050,60,"block_W1S1","Probe_Measure",243,21,"Male","Right-handed",542,1387,938,1,9,-3,"57","0","0","0","0","0",1,"W","C","- 100 ms",1,3,"-"
"2023-03-08","20:39:30","win","win10",968791880,"1680px","1050px",1680,1050,60,"block_R2S1","Probe_Measure",244,21,"Male","Right-handed",1633,1387,938,3,23,3,"57","0","0","0","0","0",1,"R","M","- 100 ms",1,3,"+"
"2023-03-08","20:39:30","win","win10",968791880,"1680px","1050px",1680,1050,60,"block_W3S1","Probe_Measure",245,21,"Male","Right-handed",808,1387,938,5,5,-1,"57","0","0","0","0","0",1,"W","O","- 100 ms",1,1,"-"
"2023-03-08","20:39:30","win","win10",968791880,"1680px","1050px",1680,1050,60,"block_R1S2","Probe_Measure",246,21,"Male","Right-handed",4800,1387,938,2,21,-1,"0","0","0","0","0","0",1,"R","C","+ 100 ms",0,1,"-"
"2023-03-08","20:39:30","win","win10",968791880,"1680px","1050px",1680,1050,60,"block_R1S2","Probe_Measure",247,21,"Male","Right-handed",4800,1387,938,2,21,1,"0","0","0","0","0","0",1,"R","C","+ 100 ms",0,1,"+"
"2023-03-08","20:39:30","win","win10",968791880,"1680px","1050px",1680,1050,60,"block_W3S1","Probe_Measure",248,21,"Male","Right-handed",4800,1387,938,5,5,3,"0","0","0","0","0","0",1,"W","O","- 100 ms",0,3,"+"
"2023-03-08","20:39:30","win","win10",968791880,"1680px","1050px",1680,1050,60,"block_W2S2","Probe_Measure",249,21,"Male","Right-handed",4800,1387,938,4,7,-3,"0","0","0","0","0","0",1,"W","M","+ 100 ms",0,3,"-"
"2023-03-08","20:39:30","win","win10",968791880,"1680px","1050px",1680,1050,60,"block_R2S1","Probe_Measure",250,21,"Male","Right-handed",4800,1387,938,3,23,1,"0","0","0","0","0","0",1,"R","M","- 100 ms",0,1,"+"
"2023-03-08","20:39:30","win","win10",968791880,"1680px","1050px",1680,1050,60,"block_R2S1","Probe_Measure",251,21,"Male","Right-handed",4800,1387,938,3,23,-1,"0","0","0","0","0","0",1,"R","M","- 100 ms",0,1,"-"
"2023-03-08","20:39:30","win","win10",968791880,"1680px","1050px",1680,1050,60,"block_R2S2","Probe_Measure",252,21,"Male","Right-handed",4800,1387,938,4,23,3,"0","0","0","0","0","0",1,"R","M","+ 100 ms",0,3,"+"
"2023-03-08","20:39:30","win","win10",968791880,"1680px","1050px",1680,1050,60,"block_R2S1","Probe_Measure",253,21,"Male","Right-handed",589,1387,938,3,23,-3,"57","0","0","0","0","0",1,"R","M","- 100 ms",1,3,"-"
"2023-03-08","20:39:30","win","win10",968791880,"1680px","1050px",1680,1050,60,"block_W2S2","Probe_Measure",254,21,"Male","Right-handed",4800,1387,938,4,7,3,"0","0","0","0","0","0",1,"W","M","+ 100 ms",0,3,"+"
"2023-03-08","20:39:30","win","win10",968791880,"1680px","1050px",1680,1050,60,"block_W2S2","Probe_Measure",255,21,"Male","Right-handed",4800,1387,938,4,7,-1,"0","0","0","0","0","0",1,"W","M","+ 100 ms",0,1,"-"
"2023-03-08","20:39:30","win","win10",968791880,"1680px","1050px",1680,1050,60,"block_W1S1","Probe_Measure",256,21,"Male","Right-handed",796,1387,938,1,9,3,"57","0","0","0","0","0",1,"W","C","- 100 ms",1,3,"+"
"2023-03-08","20:39:30","win","win10",968791880,"1680px","1050px",1680,1050,60,"block_W2S1","Probe_Measure",257,21,"Male","Right-handed",767,1387,938,3,7,-3,"57","0","0","0","0","0",1,"W","M","- 100 ms",1,3,"-"
"2023-03-08","20:39:30","win","win10",968791880,"1680px","1050px",1680,1050,60,"block_W1S2","Probe_Measure",258,21,"Male","Right-handed",4800,1387,938,2,9,3,"0","0","0","0","0","0",1,"W","C","+ 100 ms",0,3,"+"
"2023-03-08","20:39:30","win","win10",968791880,"1680px","1050px",1680,1050,60,"block_W2S1","Probe_Measure",259,21,"Male","Right-handed",4800,1387,938,3,7,-1,"0","0","0","0","0","0",1,"W","M","- 100 ms",0,1,"-"
"2023-03-08","20:39:30","win","win10",968791880,"1680px","1050px",1680,1050,60,"block_W1S2","Probe_Measure",260,21,"Male","Right-handed",4800,1387,938,2,9,1,"0","0","0","0","0","0",1,"W","C","+ 100 ms",0,1,"+"
"2023-03-08","20:39:30","win","win10",968791880,"1680px","1050px",1680,1050,60,"block_R3S2","Probe_Measure",261,21,"Male","Right-handed",4800,1387,938,6,25,-1,"0","0","0","0","0","0",1,"R","O","+ 100 ms",0,1,"-"
"2023-03-08","20:39:30","win","win10",968791880,"1680px","1050px",1680,1050,60,"block_R3S2","Probe_Measure",262,21,"Male","Right-handed",4800,1387,938,6,25,3,"0","0","0","0","0","0",1,"R","O","+ 100 ms",0,3,"+"
"2023-03-08","20:39:30","win","win10",968791880,"1680px","1050px",1680,1050,60,"block_R3S1","Probe_Measure",263,21,"Male","Right-handed",1425,1387,938,5,25,-1,"57","0","0","0","0","0",1,"R","O","- 100 ms",1,1,"-"
"2023-03-08","20:39:30","win","win10",968791880,"1680px","1050px",1680,1050,60,"block_R1S1","Probe_Measure",264,21,"Male","Right-handed",899,1387,938,1,21,-1,"57","0","0","0","0","0",1,"R","C","- 100 ms",1,1,"-"
"2023-03-08","20:39:30","win","win10",968791880,"1680px","1050px",1680,1050,60,"block_R3S1","Probe_Measure",265,21,"Male","Right-handed",4800,1387,938,5,25,1,"0","0","0","0","0","0",1,"R","O","- 100 ms",0,1,"+"
"2023-03-08","20:39:30","win","win10",968791880,"1680px","1050px",1680,1050,60,"block_W3S1","Probe_Measure",266,21,"Male","Right-handed",4800,1387,938,5,5,1,"0","0","0","0","0","0",1,"W","O","- 100 ms",0,1,"+"
"2023-03-08","20:39:30","win","win10",968791880,"1680px","1050px",1680,1050,60,"block_R3S1","Probe_Measure",267,21,"Male","Right-handed",670,1387,938,5,25,-3,"57","0","0","0","0","0",1,"R","O","- 100 ms",1,3,"-"
"2023-03-08","20:39:30","win","win10",968791880,"1680px","1050px",1680,1050,60,"block_R1S1","Probe_Measure",268,21,"Male","Right-handed",4800,1387,938,1,21,1,"0","0","0","0","0","0",1,"R","C","- 100 ms",0,1,"+"
"2023-03-08","20:39:30","win","win10",968791880,"1680px","1050px",1680,1050,60,"block_R1S1","Probe_Measure",269,21,"Male","Right-handed",4800,1387,938,1,21,3,"0","0","0","0","0","0",1,"R","C","- 100 ms",0,3,"+"
"2023-03-08","20:39:30","win","win10",968791880,"1680px","1050px",1680,1050,60,"block_R3S2","Probe_Measure",270,21,"Male","Right-handed",4800,1387,938,6,25,1,"0","0","0","0","0","0",1,"R","O","+ 100 ms",0,1,"+"
"2023-03-08","20:39:30","win","win10",968791880,"1680px","1050px",1680,1050,60,"block_W1S1","Probe_Measure",271,21,"Male","Right-handed",4800,1387,938,1,9,1,"0","0","0","0","0","0",1,"W","C","- 100 ms",0,1,"+"
"2023-03-08","20:39:30","win","win10",968791880,"1680px","1050px",1680,1050,60,"block_W3S1","Probe_Measure",272,21,"Male","Right-handed",4800,1387,938,5,5,-3,"0","0","0","0","0","0",1,"W","O","- 100 ms",0,3,"-"
"2023-03-08","20:39:30","win","win10",968791880,"1680px","1050px",1680,1050,60,"block_W1S1","Probe_Measure",273,21,"Male","Right-handed",700,1387,938,1,9,-1,"57","0","0","0","0","0",1,"W","C","- 100 ms",1,1,"-"
"2023-03-08","20:39:30","win","win10",968791880,"1680px","1050px",1680,1050,60,"block_R3S1","Probe_Measure",274,21,"Male","Right-handed",1108,1387,938,5,25,3,"57","0","0","0","0","0",1,"R","O","- 100 ms",1,3,"+"
"2023-03-08","20:39:30","win","win10",968791880,"1680px","1050px",1680,1050,60,"block_R1S2","Probe_Measure",275,21,"Male","Right-handed",663,1387,938,2,21,-3,"57","0","0","0","0","0",1,"R","C","+ 100 ms",1,3,"-"
"2023-03-08","20:39:30","win","win10",968791880,"1680px","1050px",1680,1050,60,"block_R2S2","Probe_Measure",276,21,"Male","Right-handed",700,1387,938,4,23,-1,"57","0","0","0","0","0",1,"R","M","+ 100 ms",1,1,"-"
"2023-03-08","20:39:30","win","win10",968791880,"1680px","1050px",1680,1050,60,"block_W3S2","Probe_Measure",277,21,"Male","Right-handed",4800,1387,938,6,5,-1,"0","0","0","0","0","0",1,"W","O","+ 100 ms",0,1,"-"
"2023-03-08","20:39:30","win","win10",968791880,"1680px","1050px",1680,1050,60,"block_R1S2","Probe_Measure",278,21,"Male","Right-handed",1051,1387,938,2,21,3,"57","0","0","0","0","0",1,"R","C","+ 100 ms",1,3,"+"
"2023-03-08","20:39:30","win","win10",968791880,"1680px","1050px",1680,1050,60,"block_R2S2","Probe_Measure",279,21,"Male","Right-handed",549,1387,938,4,23,-3,"57","0","0","0","0","0",1,"R","M","+ 100 ms",1,3,"-"
"2023-03-08","20:39:30","win","win10",968791880,"1680px","1050px",1680,1050,60,"block_R2S2","Probe_Measure",280,21,"Male","Right-handed",4800,1387,938,4,23,1,"0","0","0","0","0","0",1,"R","M","+ 100 ms",0,1,"+"
"2023-03-08","20:39:30","win","win10",968791880,"1680px","1050px",1680,1050,60,"block_W2S1","Probe_Measure",281,21,"Male","Right-handed",4800,1387,938,3,7,3,"0","0","0","0","0","0",1,"W","M","- 100 ms",0,3,"+"
"2023-03-08","20:39:30","win","win10",968791880,"1680px","1050px",1680,1050,60,"block_W3S2","Probe_Measure",282,21,"Male","Right-handed",4800,1387,938,6,5,1,"0","0","0","0","0","0",1,"W","O","+ 100 ms",0,1,"+"
"2023-03-08","20:39:30","win","win10",968791880,"1680px","1050px",1680,1050,60,"block_R3S2","Probe_Measure",283,21,"Male","Right-handed",585,1387,938,6,25,-3,"57","0","0","0","0","0",1,"R","O","+ 100 ms",1,3,"-"
"2023-03-08","20:39:30","win","win10",968791880,"1680px","1050px",1680,1050,60,"block_W3S2","Probe_Measure",284,21,"Male","Right-handed",681,1387,938,6,5,-3,"57","0","0","0","0","0",1,"W","O","+ 100 ms",1,3,"-"
"2023-03-08","20:39:30","win","win10",968791880,"1680px","1050px",1680,1050,60,"block_W3S2","Probe_Measure",285,21,"Male","Right-handed",4800,1387,938,6,5,3,"0","0","0","0","0","0",1,"W","O","+ 100 ms",0,3,"+"
"2023-03-08","20:39:30","win","win10",968791880,"1680px","1050px",1680,1050,60,"block_W2S2","Probe_Measure",286,21,"Male","Right-handed",4800,1387,938,4,7,1,"0","0","0","0","0","0",1,"W","M","+ 100 ms",0,1,"+"
"2023-03-08","20:39:30","win","win10",968791880,"1680px","1050px",1680,1050,60,"block_W2S1","Probe_Measure",287,21,"Male","Right-handed",4800,1387,938,3,7,1,"0","0","0","0","0","0",1,"W","M","- 100 ms",0,1,"+"
"2023-03-08","20:39:30","win","win10",968791880,"1680px","1050px",1680,1050,60,"block_W1S2","Probe_Measure",288,21,"Male","Right-handed",1347,1387,938,2,9,-3,"57","0","0","0","0","0",1,"W","C","+ 100 ms",1,3,"-"
"2023-03-08","19:40:09","mac","osx",132767727,"1280px","800px",1280,800,60,"block_R3S1","Probe_Measure",1,28,"Female","Right-handed",4800,1021,723,5,25,1,"0","0","0","0","0","0",2,"R","O","- 100 ms",0,1,"+"
"2023-03-08","19:40:09","mac","osx",132767727,"1280px","800px",1280,800,60,"block_R2S2","Probe_Measure",2,28,"Female","Right-handed",1140,1021,723,4,23,3,"57","0","0","0","0","0",2,"R","M","+ 100 ms",1,3,"+"
"2023-03-08","19:40:09","mac","osx",132767727,"1280px","800px",1280,800,60,"block_R3S2","Probe_Measure",3,28,"Female","Right-handed",988,1021,723,6,25,-3,"57","0","0","0","0","0",2,"R","O","+ 100 ms",1,3,"-"
"2023-03-08","19:40:09","mac","osx",132767727,"1280px","800px",1280,800,60,"block_R3S1","Probe_Measure",4,28,"Female","Right-handed",4800,1021,723,5,25,-1,"0","0","0","0","0","0",2,"R","O","- 100 ms",0,1,"-"
"2023-03-08","19:40:09","mac","osx",132767727,"1280px","800px",1280,800,60,"block_R3S2","Probe_Measure",5,28,"Female","Right-handed",974,1021,723,6,25,1,"57","0","0","0","0","0",2,"R","O","+ 100 ms",1,1,"+"
"2023-03-08","19:40:09","mac","osx",132767727,"1280px","800px",1280,800,60,"block_W1S1","Probe_Measure",6,28,"Female","Right-handed",644,1021,723,1,9,3,"57","0","0","0","0","0",2,"W","C","- 100 ms",1,3,"+"
"2023-03-08","19:40:09","mac","osx",132767727,"1280px","800px",1280,800,60,"block_R1S2","Probe_Measure",7,28,"Female","Right-handed",4800,1021,723,2,21,1,"0","0","0","0","0","0",2,"R","C","+ 100 ms",0,1,"+"
"2023-03-08","19:40:09","mac","osx",132767727,"1280px","800px",1280,800,60,"block_W3S1","Probe_Measure",8,28,"Female","Right-handed",1143,1021,723,5,5,-3,"57","0","0","0","0","0",2,"W","O","- 100 ms",1,3,"-"
"2023-03-08","19:40:09","mac","osx",132767727,"1280px","800px",1280,800,60,"block_R2S1","Probe_Measure",9,28,"Female","Right-handed",702,1021,723,3,23,3,"57","0","0","0","0","0",2,"R","M","- 100 ms",1,3,"+"
"2023-03-08","19:40:09","mac","osx",132767727,"1280px","800px",1280,800,60,"block_R1S1","Probe_Measure",10,28,"Female","Right-handed",616,1021,723,1,21,-3,"57","0","0","0","0","0",2,"R","C","- 100 ms",1,3,"-"
"2023-03-08","19:40:09","mac","osx",132767727,"1280px","800px",1280,800,60,"block_W3S1","Probe_Measure",11,28,"Female","Right-handed",788,1021,723,5,5,1,"57","0","0","0","0","0",2,"W","O","- 100 ms",1,1,"+"
"2023-03-08","19:40:09","mac","osx",132767727,"1280px","800px",1280,800,60,"block_W3S2","Probe_Measure",12,28,"Female","Right-handed",762,1021,723,6,5,-3,"57","0","0","0","0","0",2,"W","O","+ 100 ms",1,3,"-"
"2023-03-08","19:40:09","mac","osx",132767727,"1280px","800px",1280,800,60,"block_R2S1","Probe_Measure",13,28,"Female","Right-handed",1325,1021,723,3,23,-3,"57","0","0","0","0","0",2,"R","M","- 100 ms",1,3,"-"
"2023-03-08","19:40:09","mac","osx",132767727,"1280px","800px",1280,800,60,"block_W3S2","Probe_Measure",14,28,"Female","Right-handed",2287,1021,723,6,5,1,"57","0","0","0","0","0",2,"W","O","+ 100 ms",1,1,"+"
"2023-03-08","19:40:09","mac","osx",132767727,"1280px","800px",1280,800,60,"block_W2S1","Probe_Measure",15,28,"Female","Right-handed",1269,1021,723,3,7,-1,"57","0","0","0","0","0",2,"W","M","- 100 ms",1,1,"-"
"2023-03-08","19:40:09","mac","osx",132767727,"1280px","800px",1280,800,60,"block_R2S2","Probe_Measure",16,28,"Female","Right-handed",599,1021,723,4,23,-3,"57","0","0","0","0","0",2,"R","M","+ 100 ms",1,3,"-"
"2023-03-08","19:40:09","mac","osx",132767727,"1280px","800px",1280,800,60,"block_R3S1","Probe_Measure",17,28,"Female","Right-handed",4800,1021,723,5,25,3,"0","0","0","0","0","0",2,"R","O","- 100 ms",0,3,"+"
"2023-03-08","19:40:09","mac","osx",132767727,"1280px","800px",1280,800,60,"block_W2S1","Probe_Measure",18,28,"Female","Right-handed",1416,1021,723,3,7,3,"57","0","0","0","0","0",2,"W","M","- 100 ms",1,3,"+"
"2023-03-08","19:40:09","mac","osx",132767727,"1280px","800px",1280,800,60,"block_R1S2","Probe_Measure",19,28,"Female","Right-handed",4800,1021,723,2,21,-1,"0","0","0","0","0","0",2,"R","C","+ 100 ms",0,1,"-"
"2023-03-08","19:40:09","mac","osx",132767727,"1280px","800px",1280,800,60,"block_R1S1","Probe_Measure",20,28,"Female","Right-handed",4800,1021,723,1,21,1,"0","0","0","0","0","0",2,"R","C","- 100 ms",0,1,"+"
"2023-03-08","19:40:09","mac","osx",132767727,"1280px","800px",1280,800,60,"block_R2S2","Probe_Measure",21,28,"Female","Right-handed",1349,1021,723,4,23,-1,"57","0","0","0","0","0",2,"R","M","+ 100 ms",1,1,"-"
"2023-03-08","19:40:09","mac","osx",132767727,"1280px","800px",1280,800,60,"block_W1S2","Probe_Measure",22,28,"Female","Right-handed",1156,1021,723,2,9,3,"57","0","0","0","0","0",2,"W","C","+ 100 ms",1,3,"+"
"2023-03-08","19:40:09","mac","osx",132767727,"1280px","800px",1280,800,60,"block_W3S2","Probe_Measure",23,28,"Female","Right-handed",977,1021,723,6,5,-1,"57","0","0","0","0","0",2,"W","O","+ 100 ms",1,1,"-"
"2023-03-08","19:40:09","mac","osx",132767727,"1280px","800px",1280,800,60,"block_W3S1","Probe_Measure",24,28,"Female","Right-handed",1095,1021,723,5,5,-1,"57","0","0","0","0","0",2,"W","O","- 100 ms",1,1,"-"
"2023-03-08","19:40:09","mac","osx",132767727,"1280px","800px",1280,800,60,"block_R3S1","Probe_Measure",25,28,"Female","Right-handed",1229,1021,723,5,25,-3,"57","0","0","0","0","0",2,"R","O","- 100 ms",1,3,"-"
"2023-03-08","19:40:09","mac","osx",132767727,"1280px","800px",1280,800,60,"block_W1S2","Probe_Measure",26,28,"Female","Right-handed",1585,1021,723,2,9,1,"57","0","0","0","0","0",2,"W","C","+ 100 ms",1,1,"+"
"2023-03-08","19:40:09","mac","osx",132767727,"1280px","800px",1280,800,60,"block_R1S1","Probe_Measure",27,28,"Female","Right-handed",4800,1021,723,1,21,3,"0","0","0","0","0","0",2,"R","C","- 100 ms",0,3,"+"
"2023-03-08","19:40:09","mac","osx",132767727,"1280px","800px",1280,800,60,"block_W2S2","Probe_Measure",28,28,"Female","Right-handed",1092,1021,723,4,7,3,"57","0","0","0","0","0",2,"W","M","+ 100 ms",1,3,"+"
"2023-03-08","19:40:09","mac","osx",132767727,"1280px","800px",1280,800,60,"block_W2S2","Probe_Measure",29,28,"Female","Right-handed",662,1021,723,4,7,-3,"57","0","0","0","0","0",2,"W","M","+ 100 ms",1,3,"-"
"2023-03-08","19:40:09","mac","osx",132767727,"1280px","800px",1280,800,60,"block_R3S2","Probe_Measure",30,28,"Female","Right-handed",1275,1021,723,6,25,-1,"57","0","0","0","0","0",2,"R","O","+ 100 ms",1,1,"-"
"2023-03-08","19:40:09","mac","osx",132767727,"1280px","800px",1280,800,60,"block_W2S2","Probe_Measure",31,28,"Female","Right-handed",4800,1021,723,4,7,1,"0","0","0","0","0","0",2,"W","M","+ 100 ms",0,1,"+"
"2023-03-08","19:40:09","mac","osx",132767727,"1280px","800px",1280,800,60,"block_W3S2","Probe_Measure",32,28,"Female","Right-handed",4800,1021,723,6,5,3,"0","0","0","0","0","0",2,"W","O","+ 100 ms",0,3,"+"
"2023-03-08","19:40:09","mac","osx",132767727,"1280px","800px",1280,800,60,"block_W1S2","Probe_Measure",33,28,"Female","Right-handed",653,1021,723,2,9,-1,"57","0","0","0","0","0",2,"W","C","+ 100 ms",1,1,"-"
"2023-03-08","19:40:09","mac","osx",132767727,"1280px","800px",1280,800,60,"block_W1S1","Probe_Measure",34,28,"Female","Right-handed",4800,1021,723,1,9,1,"0","0","0","0","0","0",2,"W","C","- 100 ms",0,1,"+"
"2023-03-08","19:40:09","mac","osx",132767727,"1280px","800px",1280,800,60,"block_R1S2","Probe_Measure",35,28,"Female","Right-handed",1202,1021,723,2,21,3,"57","0","0","0","0","0",2,"R","C","+ 100 ms",1,3,"+"
"2023-03-08","19:40:09","mac","osx",132767727,"1280px","800px",1280,800,60,"block_R2S1","Probe_Measure",36,28,"Female","Right-handed",1403,1021,723,3,23,1,"57","0","0","0","0","0",2,"R","M","- 100 ms",1,1,"+"
"2023-03-08","19:40:09","mac","osx",132767727,"1280px","800px",1280,800,60,"block_W2S2","Probe_Measure",37,28,"Female","Right-handed",4800,1021,723,4,7,-1,"0","0","0","0","0","0",2,"W","M","+ 100 ms",0,1,"-"
"2023-03-08","19:40:09","mac","osx",132767727,"1280px","800px",1280,800,60,"block_R1S1","Probe_Measure",38,28,"Female","Right-handed",3757,1021,723,1,21,-1,"57","0","0","0","0","0",2,"R","C","- 100 ms",1,1,"-"
"2023-03-08","19:40:09","mac","osx",132767727,"1280px","800px",1280,800,60,"block_W1S1","Probe_Measure",39,28,"Female","Right-handed",4800,1021,723,1,9,-3,"0","0","0","0","0","0",2,"W","C","- 100 ms",0,3,"-"
"2023-03-08","19:40:09","mac","osx",132767727,"1280px","800px",1280,800,60,"block_R2S1","Probe_Measure",40,28,"Female","Right-handed",849,1021,723,3,23,-1,"57","0","0","0","0","0",2,"R","M","- 100 ms",1,1,"-"
"2023-03-08","19:40:09","mac","osx",132767727,"1280px","800px",1280,800,60,"block_W1S2","Probe_Measure",41,28,"Female","Right-handed",604,1021,723,2,9,-3,"57","0","0","0","0","0",2,"W","C","+ 100 ms",1,3,"-"
"2023-03-08","19:40:09","mac","osx",132767727,"1280px","800px",1280,800,60,"block_W2S1","Probe_Measure",42,28,"Female","Right-handed",607,1021,723,3,7,-3,"57","0","0","0","0","0",2,"W","M","- 100 ms",1,3,"-"
"2023-03-08","19:40:09","mac","osx",132767727,"1280px","800px",1280,800,60,"block_W3S1","Probe_Measure",43,28,"Female","Right-handed",1501,1021,723,5,5,3,"57","0","0","0","0","0",2,"W","O","- 100 ms",1,3,"+"
"2023-03-08","19:40:09","mac","osx",132767727,"1280px","800px",1280,800,60,"block_R2S2","Probe_Measure",44,28,"Female","Right-handed",4800,1021,723,4,23,1,"0","0","0","0","0","0",2,"R","M","+ 100 ms",0,1,"+"
"2023-03-08","19:40:09","mac","osx",132767727,"1280px","800px",1280,800,60,"block_W1S1","Probe_Measure",45,28,"Female","Right-handed",1337,1021,723,1,9,-1,"57","0","0","0","0","0",2,"W","C","- 100 ms",1,1,"-"
"2023-03-08","19:40:09","mac","osx",132767727,"1280px","800px",1280,800,60,"block_R1S2","Probe_Measure",46,28,"Female","Right-handed",703,1021,723,2,21,-3,"57","0","0","0","0","0",2,"R","C","+ 100 ms",1,3,"-"
"2023-03-08","19:40:09","mac","osx",132767727,"1280px","800px",1280,800,60,"block_W2S1","Probe_Measure",47,28,"Female","Right-handed",4800,1021,723,3,7,1,"0","0","0","0","0","0",2,"W","M","- 100 ms",0,1,"+"
"2023-03-08","19:40:09","mac","osx",132767727,"1280px","800px",1280,800,60,"block_R3S2","Probe_Measure",48,28,"Female","Right-handed",873,1021,723,6,25,3,"57","0","0","0","0","0",2,"R","O","+ 100 ms",1,3,"+"
"2023-03-08","19:40:09","mac","osx",132767727,"1280px","800px",1280,800,60,"block_R3S1","Probe_Measure",49,28,"Female","Right-handed",4800,1021,723,5,25,3,"0","0","0","0","0","0",2,"R","O","- 100 ms",0,3,"+"
"2023-03-08","19:40:09","mac","osx",132767727,"1280px","800px",1280,800,60,"block_W2S1","Probe_Measure",50,28,"Female","Right-handed",690,1021,723,3,7,-1,"57","0","0","0","0","0",2,"W","M","- 100 ms",1,1,"-"
"2023-03-08","19:40:09","mac","osx",132767727,"1280px","800px",1280,800,60,"block_W2S2","Probe_Measure",51,28,"Female","Right-handed",4800,1021,723,4,7,1,"0","0","0","0","0","0",2,"W","M","+ 100 ms",0,1,"+"
"2023-03-08","19:40:09","mac","osx",132767727,"1280px","800px",1280,800,60,"block_W3S1","Probe_Measure",52,28,"Female","Right-handed",706,1021,723,5,5,-3,"57","0","0","0","0","0",2,"W","O","- 100 ms",1,3,"-"
"2023-03-08","19:40:09","mac","osx",132767727,"1280px","800px",1280,800,60,"block_W1S2","Probe_Measure",53,28,"Female","Right-handed",909,1021,723,2,9,3,"57","0","0","0","0","0",2,"W","C","+ 100 ms",1,3,"+"
"2023-03-08","19:40:09","mac","osx",132767727,"1280px","800px",1280,800,60,"block_R3S1","Probe_Measure",54,28,"Female","Right-handed",4800,1021,723,5,25,1,"0","0","0","0","0","0",2,"R","O","- 100 ms",0,1,"+"
"2023-03-08","19:40:09","mac","osx",132767727,"1280px","800px",1280,800,60,"block_W1S1","Probe_Measure",55,28,"Female","Right-handed",1342,1021,723,1,9,3,"57","0","0","0","0","0",2,"W","C","- 100 ms",1,3,"+"
"2023-03-08","19:40:09","mac","osx",132767727,"1280px","800px",1280,800,60,"block_W1S1","Probe_Measure",56,28,"Female","Right-handed",4800,1021,723,1,9,1,"0","0","0","0","0","0",2,"W","C","- 100 ms",0,1,"+"
"2023-03-08","19:40:09","mac","osx",132767727,"1280px","800px",1280,800,60,"block_W3S2","Probe_Measure",57,28,"Female","Right-handed",4800,1021,723,6,5,3,"0","0","0","0","0","0",2,"W","O","+ 100 ms",0,3,"+"
"2023-03-08","19:40:09","mac","osx",132767727,"1280px","800px",1280,800,60,"block_R2S2","Probe_Measure",58,28,"Female","Right-handed",4800,1021,723,4,23,1,"0","0","0","0","0","0",2,"R","M","+ 100 ms",0,1,"+"
"2023-03-08","19:40:09","mac","osx",132767727,"1280px","800px",1280,800,60,"block_R3S2","Probe_Measure",59,28,"Female","Right-handed",4800,1021,723,6,25,-3,"0","0","0","0","0","0",2,"R","O","+ 100 ms",0,3,"-"
"2023-03-08","19:40:09","mac","osx",132767727,"1280px","800px",1280,800,60,"block_R2S1","Probe_Measure",60,28,"Female","Right-handed",4800,1021,723,3,23,1,"0","0","0","0","0","0",2,"R","M","- 100 ms",0,1,"+"
"2023-03-08","19:40:09","mac","osx",132767727,"1280px","800px",1280,800,60,"block_R2S2","Probe_Measure",61,28,"Female","Right-handed",1573,1021,723,4,23,3,"57","0","0","0","0","0",2,"R","M","+ 100 ms",1,3,"+"
"2023-03-08","19:40:09","mac","osx",132767727,"1280px","800px",1280,800,60,"block_R3S2","Probe_Measure",62,28,"Female","Right-handed",2469,1021,723,6,25,3,"57","0","0","0","0","0",2,"R","O","+ 100 ms",1,3,"+"
"2023-03-08","19:40:09","mac","osx",132767727,"1280px","800px",1280,800,60,"block_W3S2","Probe_Measure",63,28,"Female","Right-handed",682,1021,723,6,5,-1,"57","0","0","0","0","0",2,"W","O","+ 100 ms",1,1,"-"
"2023-03-08","19:40:09","mac","osx",132767727,"1280px","800px",1280,800,60,"block_R2S2","Probe_Measure",64,28,"Female","Right-handed",779,1021,723,4,23,-3,"57","0","0","0","0","0",2,"R","M","+ 100 ms",1,3,"-"
"2023-03-08","19:40:09","mac","osx",132767727,"1280px","800px",1280,800,60,"block_R1S1","Probe_Measure",65,28,"Female","Right-handed",4800,1021,723,1,21,3,"0","0","0","0","0","0",2,"R","C","- 100 ms",0,3,"+"
"2023-03-08","19:40:09","mac","osx",132767727,"1280px","800px",1280,800,60,"block_R1S1","Probe_Measure",66,28,"Female","Right-handed",4800,1021,723,1,21,-1,"0","0","0","0","0","0",2,"R","C","- 100 ms",0,1,"-"
"2023-03-08","19:40:09","mac","osx",132767727,"1280px","800px",1280,800,60,"block_R2S1","Probe_Measure",67,28,"Female","Right-handed",690,1021,723,3,23,-3,"57","0","0","0","0","0",2,"R","M","- 100 ms",1,3,"-"
"2023-03-08","19:40:09","mac","osx",132767727,"1280px","800px",1280,800,60,"block_W2S1","Probe_Measure",68,28,"Female","Right-handed",4800,1021,723,3,7,1,"0","0","0","0","0","0",2,"W","M","- 100 ms",0,1,"+"
"2023-03-08","19:40:09","mac","osx",132767727,"1280px","800px",1280,800,60,"block_W1S2","Probe_Measure",69,28,"Female","Right-handed",4800,1021,723,2,9,1,"0","0","0","0","0","0",2,"W","C","+ 100 ms",0,1,"+"
"2023-03-08","19:40:09","mac","osx",132767727,"1280px","800px",1280,800,60,"block_R1S1","Probe_Measure",70,28,"Female","Right-handed",666,1021,723,1,21,-3,"57","0","0","0","0","0",2,"R","C","- 100 ms",1,3,"-"
"2023-03-08","19:40:09","mac","osx",132767727,"1280px","800px",1280,800,60,"block_W2S2","Probe_Measure",71,28,"Female","Right-handed",1139,1021,723,4,7,3,"57","0","0","0","0","0",2,"W","M","+ 100 ms",1,3,"+"
"2023-03-08","19:40:09","mac","osx",132767727,"1280px","800px",1280,800,60,"block_W1S2","Probe_Measure",72,28,"Female","Right-handed",691,1021,723,2,9,-1,"57","0","0","0","0","0",2,"W","C","+ 100 ms",1,1,"-"
"2023-03-08","19:40:09","mac","osx",132767727,"1280px","800px",1280,800,60,"block_R1S1","Probe_Measure",73,28,"Female","Right-handed",4800,1021,723,1,21,1,"0","0","0","0","0","0",2,"R","C","- 100 ms",0,1,"+"
"2023-03-08","19:40:09","mac","osx",132767727,"1280px","800px",1280,800,60,"block_W2S1","Probe_Measure",74,28,"Female","Right-handed",636,1021,723,3,7,3,"57","0","0","0","0","0",2,"W","M","- 100 ms",1,3,"+"
"2023-03-08","19:40:09","mac","osx",132767727,"1280px","800px",1280,800,60,"block_W3S2","Probe_Measure",75,28,"Female","Right-handed",4800,1021,723,6,5,1,"0","0","0","0","0","0",2,"W","O","+ 100 ms",0,1,"+"
"2023-03-08","19:40:09","mac","osx",132767727,"1280px","800px",1280,800,60,"block_W3S1","Probe_Measure",76,28,"Female","Right-handed",4800,1021,723,5,5,3,"0","0","0","0","0","0",2,"W","O","- 100 ms",0,3,"+"
"2023-03-08","19:40:09","mac","osx",132767727,"1280px","800px",1280,800,60,"block_W3S2","Probe_Measure",77,28,"Female","Right-handed",534,1021,723,6,5,-3,"57","0","0","0","0","0",2,"W","O","+ 100 ms",1,3,"-"
"2023-03-08","19:40:09","mac","osx",132767727,"1280px","800px",1280,800,60,"block_R2S1","Probe_Measure",78,28,"Female","Right-handed",4800,1021,723,3,23,-1,"0","0","0","0","0","0",2,"R","M","- 100 ms",0,1,"-"
"2023-03-08","19:40:09","mac","osx",132767727,"1280px","800px",1280,800,60,"block_W2S1","Probe_Measure",79,28,"Female","Right-handed",564,1021,723,3,7,-3,"57","0","0","0","0","0",2,"W","M","- 100 ms",1,3,"-"
"2023-03-08","19:40:09","mac","osx",132767727,"1280px","800px",1280,800,60,"block_W3S1","Probe_Measure",80,28,"Female","Right-handed",4800,1021,723,5,5,-1,"0","0","0","0","0","0",2,"W","O","- 100 ms",0,1,"-"
"2023-03-08","19:40:09","mac","osx",132767727,"1280px","800px",1280,800,60,"block_R1S2","Probe_Measure",81,28,"Female","Right-handed",4800,1021,723,2,21,1,"0","0","0","0","0","0",2,"R","C","+ 100 ms",0,1,"+"
"2023-03-08","19:40:09","mac","osx",132767727,"1280px","800px",1280,800,60,"block_R2S1","Probe_Measure",82,28,"Female","Right-handed",4800,1021,723,3,23,3,"0","0","0","0","0","0",2,"R","M","- 100 ms",0,3,"+"
"2023-03-08","19:40:09","mac","osx",132767727,"1280px","800px",1280,800,60,"block_W3S1","Probe_Measure",83,28,"Female","Right-handed",4800,1021,723,5,5,1,"0","0","0","0","0","0",2,"W","O","- 100 ms",0,1,"+"
"2023-03-08","19:40:09","mac","osx",132767727,"1280px","800px",1280,800,60,"block_R1S2","Probe_Measure",84,28,"Female","Right-handed",560,1021,723,2,21,-3,"57","0","0","0","0","0",2,"R","C","+ 100 ms",1,3,"-"
"2023-03-08","19:40:09","mac","osx",132767727,"1280px","800px",1280,800,60,"block_W1S1","Probe_Measure",85,28,"Female","Right-handed",1852,1021,723,1,9,-1,"57","0","0","0","0","0",2,"W","C","- 100 ms",1,1,"-"
"2023-03-08","19:40:09","mac","osx",132767727,"1280px","800px",1280,800,60,"block_W1S2","Probe_Measure",86,28,"Female","Right-handed",552,1021,723,2,9,-3,"57","0","0","0","0","0",2,"W","C","+ 100 ms",1,3,"-"
"2023-03-08","19:40:09","mac","osx",132767727,"1280px","800px",1280,800,60,"block_R1S2","Probe_Measure",87,28,"Female","Right-handed",1214,1021,723,2,21,-1,"57","0","0","0","0","0",2,"R","C","+ 100 ms",1,1,"-"
"2023-03-08","19:40:09","mac","osx",132767727,"1280px","800px",1280,800,60,"block_R3S1","Probe_Measure",88,28,"Female","Right-handed",4800,1021,723,5,25,-3,"0","0","0","0","0","0",2,"R","O","- 100 ms",0,3,"-"
"2023-03-08","19:40:09","mac","osx",132767727,"1280px","800px",1280,800,60,"block_R3S1","Probe_Measure",89,28,"Female","Right-handed",4800,1021,723,5,25,-1,"0","0","0","0","0","0",2,"R","O","- 100 ms",0,1,"-"
"2023-03-08","19:40:09","mac","osx",132767727,"1280px","800px",1280,800,60,"block_W1S1","Probe_Measure",90,28,"Female","Right-handed",644,1021,723,1,9,-3,"57","0","0","0","0","0",2,"W","C","- 100 ms",1,3,"-"
"2023-03-08","19:40:09","mac","osx",132767727,"1280px","800px",1280,800,60,"block_R3S2","Probe_Measure",91,28,"Female","Right-handed",4800,1021,723,6,25,1,"0","0","0","0","0","0",2,"R","O","+ 100 ms",0,1,"+"
"2023-03-08","19:40:09","mac","osx",132767727,"1280px","800px",1280,800,60,"block_R1S2","Probe_Measure",92,28,"Female","Right-handed",531,1021,723,2,21,3,"57","0","0","0","0","0",2,"R","C","+ 100 ms",1,3,"+"
"2023-03-08","19:40:09","mac","osx",132767727,"1280px","800px",1280,800,60,"block_R2S2","Probe_Measure",93,28,"Female","Right-handed",4800,1021,723,4,23,-1,"0","0","0","0","0","0",2,"R","M","+ 100 ms",0,1,"-"
"2023-03-08","19:40:09","mac","osx",132767727,"1280px","800px",1280,800,60,"block_R3S2","Probe_Measure",94,28,"Female","Right-handed",4800,1021,723,6,25,-1,"0","0","0","0","0","0",2,"R","O","+ 100 ms",0,1,"-"
"2023-03-08","19:40:09","mac","osx",132767727,"1280px","800px",1280,800,60,"block_W2S2","Probe_Measure",95,28,"Female","Right-handed",629,1021,723,4,7,-3,"57","0","0","0","0","0",2,"W","M","+ 100 ms",1,3,"-"
"2023-03-08","19:40:09","mac","osx",132767727,"1280px","800px",1280,800,60,"block_W2S2","Probe_Measure",96,28,"Female","Right-handed",683,1021,723,4,7,-1,"57","0","0","0","0","0",2,"W","M","+ 100 ms",1,1,"-"
"2023-03-08","19:40:09","mac","osx",132767727,"1280px","800px",1280,800,60,"block_R1S2","Probe_Measure",97,28,"Female","Right-handed",766,1021,723,2,21,3,"57","0","0","0","0","0",2,"R","C","+ 100 ms",1,3,"+"
"2023-03-08","19:40:09","mac","osx",132767727,"1280px","800px",1280,800,60,"block_W2S2","Probe_Measure",98,28,"Female","Right-handed",4800,1021,723,4,7,1,"0","0","0","0","0","0",2,"W","M","+ 100 ms",0,1,"+"
"2023-03-08","19:40:09","mac","osx",132767727,"1280px","800px",1280,800,60,"block_W2S2","Probe_Measure",99,28,"Female","Right-handed",713,1021,723,4,7,-1,"57","0","0","0","0","0",2,"W","M","+ 100 ms",1,1,"-"
"2023-03-08","19:40:09","mac","osx",132767727,"1280px","800px",1280,800,60,"block_W1S1","Probe_Measure",100,28,"Female","Right-handed",4800,1021,723,1,9,1,"0","0","0","0","0","0",2,"W","C","- 100 ms",0,1,"+"
"2023-03-08","19:40:09","mac","osx",132767727,"1280px","800px",1280,800,60,"block_W3S1","Probe_Measure",101,28,"Female","Right-handed",1052,1021,723,5,5,3,"57","0","0","0","0","0",2,"W","O","- 100 ms",1,3,"+"
"2023-03-08","19:40:09","mac","osx",132767727,"1280px","800px",1280,800,60,"block_W2S2","Probe_Measure",102,28,"Female","Right-handed",653,1021,723,4,7,3,"57","0","0","0","0","0",2,"W","M","+ 100 ms",1,3,"+"
"2023-03-08","19:40:09","mac","osx",132767727,"1280px","800px",1280,800,60,"block_R3S1","Probe_Measure",103,28,"Female","Right-handed",706,1021,723,5,25,1,"57","0","0","0","0","0",2,"R","O","- 100 ms",1,1,"+"
"2023-03-08","19:40:09","mac","osx",132767727,"1280px","800px",1280,800,60,"block_R2S1","Probe_Measure",104,28,"Female","Right-handed",4800,1021,723,3,23,1,"0","0","0","0","0","0",2,"R","M","- 100 ms",0,1,"+"
"2023-03-08","19:40:09","mac","osx",132767727,"1280px","800px",1280,800,60,"block_R1S1","Probe_Measure",105,28,"Female","Right-handed",4800,1021,723,1,21,3,"0","0","0","0","0","0",2,"R","C","- 100 ms",0,3,"+"
"2023-03-08","19:40:09","mac","osx",132767727,"1280px","800px",1280,800,60,"block_W2S1","Probe_Measure",106,28,"Female","Right-handed",618,1021,723,3,7,3,"57","0","0","0","0","0",2,"W","M","- 100 ms",1,3,"+"
"2023-03-08","19:40:09","mac","osx",132767727,"1280px","800px",1280,800,60,"block_R2S2","Probe_Measure",107,28,"Female","Right-handed",604,1021,723,4,23,-3,"57","0","0","0","0","0",2,"R","M","+ 100 ms",1,3,"-"
"2023-03-08","19:40:09","mac","osx",132767727,"1280px","800px",1280,800,60,"block_R3S2","Probe_Measure",108,28,"Female","Right-handed",999,1021,723,6,25,3,"57","0","0","0","0","0",2,"R","O","+ 100 ms",1,3,"+"
"2023-03-08","19:40:09","mac","osx",132767727,"1280px","800px",1280,800,60,"block_R3S1","Probe_Measure",109,28,"Female","Right-handed",722,1021,723,5,25,-3,"57","0","0","0","0","0",2,"R","O","- 100 ms",1,3,"-"
"2023-03-08","19:40:09","mac","osx",132767727,"1280px","800px",1280,800,60,"block_R1S2","Probe_Measure",110,28,"Female","Right-handed",4800,1021,723,2,21,-1,"0","0","0","0","0","0",2,"R","C","+ 100 ms",0,1,"-"
"2023-03-08","19:40:09","mac","osx",132767727,"1280px","800px",1280,800,60,"block_W1S1","Probe_Measure",111,28,"Female","Right-handed",598,1021,723,1,9,-1,"57","0","0","0","0","0",2,"W","C","- 100 ms",1,1,"-"
"2023-03-08","19:40:09","mac","osx",132767727,"1280px","800px",1280,800,60,"block_W3S1","Probe_Measure",112,28,"Female","Right-handed",673,1021,723,5,5,-1,"57","0","0","0","0","0",2,"W","O","- 100 ms",1,1,"-"
"2023-03-08","19:40:09","mac","osx",132767727,"1280px","800px",1280,800,60,"block_W3S1","Probe_Measure",113,28,"Female","Right-handed",4800,1021,723,5,5,1,"0","0","0","0","0","0",2,"W","O","- 100 ms",0,1,"+"
"2023-03-08","19:40:09","mac","osx",132767727,"1280px","800px",1280,800,60,"block_W1S1","Probe_Measure",114,28,"Female","Right-handed",989,1021,723,1,9,3,"57","0","0","0","0","0",2,"W","C","- 100 ms",1,3,"+"
"2023-03-08","19:40:09","mac","osx",132767727,"1280px","800px",1280,800,60,"block_W3S2","Probe_Measure",115,28,"Female","Right-handed",639,1021,723,6,5,-1,"57","0","0","0","0","0",2,"W","O","+ 100 ms",1,1,"-"
"2023-03-08","19:40:09","mac","osx",132767727,"1280px","800px",1280,800,60,"block_W2S1","Probe_Measure",116,28,"Female","Right-handed",546,1021,723,3,7,-3,"57","0","0","0","0","0",2,"W","M","- 100 ms",1,3,"-"
"2023-03-08","19:40:09","mac","osx",132767727,"1280px","800px",1280,800,60,"block_R1S2","Probe_Measure",117,28,"Female","Right-handed",4800,1021,723,2,21,1,"0","0","0","0","0","0",2,"R","C","+ 100 ms",0,1,"+"
"2023-03-08","19:40:09","mac","osx",132767727,"1280px","800px",1280,800,60,"block_R3S1","Probe_Measure",118,28,"Female","Right-handed",4800,1021,723,5,25,-1,"0","0","0","0","0","0",2,"R","O","- 100 ms",0,1,"-"
"2023-03-08","19:40:09","mac","osx",132767727,"1280px","800px",1280,800,60,"block_W1S2","Probe_Measure",119,28,"Female","Right-handed",4800,1021,723,2,9,1,"0","0","0","0","0","0",2,"W","C","+ 100 ms",0,1,"+"
"2023-03-08","19:40:09","mac","osx",132767727,"1280px","800px",1280,800,60,"block_W3S2","Probe_Measure",120,28,"Female","Right-handed",760,1021,723,6,5,3,"57","0","0","0","0","0",2,"W","O","+ 100 ms",1,3,"+"
"2023-03-08","19:40:09","mac","osx",132767727,"1280px","800px",1280,800,60,"block_R2S2","Probe_Measure",121,28,"Female","Right-handed",4800,1021,723,4,23,-1,"0","0","0","0","0","0",2,"R","M","+ 100 ms",0,1,"-"
"2023-03-08","19:40:09","mac","osx",132767727,"1280px","800px",1280,800,60,"block_W1S1","Probe_Measure",122,28,"Female","Right-handed",591,1021,723,1,9,-3,"57","0","0","0","0","0",2,"W","C","- 100 ms",1,3,"-"
"2023-03-08","19:40:09","mac","osx",132767727,"1280px","800px",1280,800,60,"block_R1S2","Probe_Measure",123,28,"Female","Right-handed",623,1021,723,2,21,-3,"57","0","0","0","0","0",2,"R","C","+ 100 ms",1,3,"-"
"2023-03-08","19:40:09","mac","osx",132767727,"1280px","800px",1280,800,60,"block_R2S2","Probe_Measure",124,28,"Female","Right-handed",4800,1021,723,4,23,1,"0","0","0","0","0","0",2,"R","M","+ 100 ms",0,1,"+"
"2023-03-08","19:40:09","mac","osx",132767727,"1280px","800px",1280,800,60,"block_W1S2","Probe_Measure",125,28,"Female","Right-handed",565,1021,723,2,9,-1,"57","0","0","0","0","0",2,"W","C","+ 100 ms",1,1,"-"
"2023-03-08","19:40:09","mac","osx",132767727,"1280px","800px",1280,800,60,"block_R2S2","Probe_Measure",126,28,"Female","Right-handed",4800,1021,723,4,23,3,"0","0","0","0","0","0",2,"R","M","+ 100 ms",0,3,"+"
"2023-03-08","19:40:09","mac","osx",132767727,"1280px","800px",1280,800,60,"block_R3S2","Probe_Measure",127,28,"Female","Right-handed",4800,1021,723,6,25,1,"0","0","0","0","0","0",2,"R","O","+ 100 ms",0,1,"+"
"2023-03-08","19:40:09","mac","osx",132767727,"1280px","800px",1280,800,60,"block_R3S2","Probe_Measure",128,28,"Female","Right-handed",4800,1021,723,6,25,-3,"0","0","0","0","0","0",2,"R","O","+ 100 ms",0,3,"-"
"2023-03-08","19:40:09","mac","osx",132767727,"1280px","800px",1280,800,60,"block_R3S2","Probe_Measure",129,28,"Female","Right-handed",4800,1021,723,6,25,-1,"0","0","0","0","0","0",2,"R","O","+ 100 ms",0,1,"-"
"2023-03-08","19:40:09","mac","osx",132767727,"1280px","800px",1280,800,60,"block_R1S1","Probe_Measure",130,28,"Female","Right-handed",4800,1021,723,1,21,-1,"0","0","0","0","0","0",2,"R","C","- 100 ms",0,1,"-"
"2023-03-08","19:40:09","mac","osx",132767727,"1280px","800px",1280,800,60,"block_R2S1","Probe_Measure",131,28,"Female","Right-handed",844,1021,723,3,23,3,"57","0","0","0","0","0",2,"R","M","- 100 ms",1,3,"+"
"2023-03-08","19:40:09","mac","osx",132767727,"1280px","800px",1280,800,60,"block_W3S2","Probe_Measure",132,28,"Female","Right-handed",4800,1021,723,6,5,1,"0","0","0","0","0","0",2,"W","O","+ 100 ms",0,1,"+"
"2023-03-08","19:40:09","mac","osx",132767727,"1280px","800px",1280,800,60,"block_R2S1","Probe_Measure",133,28,"Female","Right-handed",695,1021,723,3,23,-3,"57","0","0","0","0","0",2,"R","M","- 100 ms",1,3,"-"
"2023-03-08","19:40:09","mac","osx",132767727,"1280px","800px",1280,800,60,"block_W3S1","Probe_Measure",134,28,"Female","Right-handed",516,1021,723,5,5,-3,"57","0","0","0","0","0",2,"W","O","- 100 ms",1,3,"-"
"2023-03-08","19:40:09","mac","osx",132767727,"1280px","800px",1280,800,60,"block_R1S1","Probe_Measure",135,28,"Female","Right-handed",4800,1021,723,1,21,1,"0","0","0","0","0","0",2,"R","C","- 100 ms",0,1,"+"
"2023-03-08","19:40:09","mac","osx",132767727,"1280px","800px",1280,800,60,"block_W3S2","Probe_Measure",136,28,"Female","Right-handed",1003,1021,723,6,5,-3,"57","0","0","0","0","0",2,"W","O","+ 100 ms",1,3,"-"
"2023-03-08","19:40:09","mac","osx",132767727,"1280px","800px",1280,800,60,"block_W1S2","Probe_Measure",137,28,"Female","Right-handed",522,1021,723,2,9,3,"57","0","0","0","0","0",2,"W","C","+ 100 ms",1,3,"+"
"2023-03-08","19:40:09","mac","osx",132767727,"1280px","800px",1280,800,60,"block_R3S1","Probe_Measure",138,28,"Female","Right-handed",660,1021,723,5,25,3,"57","0","0","0","0","0",2,"R","O","- 100 ms",1,3,"+"
"2023-03-08","19:40:09","mac","osx",132767727,"1280px","800px",1280,800,60,"block_W2S1","Probe_Measure",139,28,"Female","Right-handed",4800,1021,723,3,7,1,"0","0","0","0","0","0",2,"W","M","- 100 ms",0,1,"+"
"2023-03-08","19:40:09","mac","osx",132767727,"1280px","800px",1280,800,60,"block_R1S1","Probe_Measure",140,28,"Female","Right-handed",568,1021,723,1,21,-3,"57","0","0","0","0","0",2,"R","C","- 100 ms",1,3,"-"
"2023-03-08","19:40:09","mac","osx",132767727,"1280px","800px",1280,800,60,"block_R2S1","Probe_Measure",141,28,"Female","Right-handed",4800,1021,723,3,23,-1,"0","0","0","0","0","0",2,"R","M","- 100 ms",0,1,"-"
"2023-03-08","19:40:09","mac","osx",132767727,"1280px","800px",1280,800,60,"block_W2S2","Probe_Measure",142,28,"Female","Right-handed",570,1021,723,4,7,-3,"57","0","0","0","0","0",2,"W","M","+ 100 ms",1,3,"-"
"2023-03-08","19:40:09","mac","osx",132767727,"1280px","800px",1280,800,60,"block_W1S2","Probe_Measure",143,28,"Female","Right-handed",550,1021,723,2,9,-3,"57","0","0","0","0","0",2,"W","C","+ 100 ms",1,3,"-"
"2023-03-08","19:40:09","mac","osx",132767727,"1280px","800px",1280,800,60,"block_W2S1","Probe_Measure",144,28,"Female","Right-handed",642,1021,723,3,7,-1,"57","0","0","0","0","0",2,"W","M","- 100 ms",1,1,"-"
"2023-03-08","19:40:09","mac","osx",132767727,"1280px","800px",1280,800,60,"block_W2S2","Probe_Measure",145,28,"Female","Right-handed",4800,1021,723,4,7,1,"0","0","0","0","0","0",2,"W","M","+ 100 ms",0,1,"+"
"2023-03-08","19:40:09","mac","osx",132767727,"1280px","800px",1280,800,60,"block_R2S1","Probe_Measure",146,28,"Female","Right-handed",4800,1021,723,3,23,3,"0","0","0","0","0","0",2,"R","M","- 100 ms",0,3,"+"
"2023-03-08","19:40:09","mac","osx",132767727,"1280px","800px",1280,800,60,"block_W2S2","Probe_Measure",147,28,"Female","Right-handed",679,1021,723,4,7,-1,"57","0","0","0","0","0",2,"W","M","+ 100 ms",1,1,"-"
"2023-03-08","19:40:09","mac","osx",132767727,"1280px","800px",1280,800,60,"block_R1S1","Probe_Measure",148,28,"Female","Right-handed",538,1021,723,1,21,-3,"57","0","0","0","0","0",2,"R","C","- 100 ms",1,3,"-"
"2023-03-08","19:40:09","mac","osx",132767727,"1280px","800px",1280,800,60,"block_W3S1","Probe_Measure",149,28,"Female","Right-handed",4800,1021,723,5,5,1,"0","0","0","0","0","0",2,"W","O","- 100 ms",0,1,"+"
"2023-03-08","19:40:09","mac","osx",132767727,"1280px","800px",1280,800,60,"block_R2S1","Probe_Measure",150,28,"Female","Right-handed",4800,1021,723,3,23,1,"0","0","0","0","0","0",2,"R","M","- 100 ms",0,1,"+"
"2023-03-08","19:40:09","mac","osx",132767727,"1280px","800px",1280,800,60,"block_R2S1","Probe_Measure",151,28,"Female","Right-handed",487,1021,723,3,23,-3,"57","0","0","0","0","0",2,"R","M","- 100 ms",1,3,"-"
"2023-03-08","19:40:09","mac","osx",132767727,"1280px","800px",1280,800,60,"block_R2S1","Probe_Measure",152,28,"Female","Right-handed",4800,1021,723,3,23,-1,"0","0","0","0","0","0",2,"R","M","- 100 ms",0,1,"-"
"2023-03-08","19:40:09","mac","osx",132767727,"1280px","800px",1280,800,60,"block_R2S2","Probe_Measure",153,28,"Female","Right-handed",1045,1021,723,4,23,3,"57","0","0","0","0","0",2,"R","M","+ 100 ms",1,3,"+"
"2023-03-08","19:40:09","mac","osx",132767727,"1280px","800px",1280,800,60,"block_W2S1","Probe_Measure",154,28,"Female","Right-handed",597,1021,723,3,7,1,"57","0","0","0","0","0",2,"W","M","- 100 ms",1,1,"+"
"2023-03-08","19:40:09","mac","osx",132767727,"1280px","800px",1280,800,60,"block_R1S2","Probe_Measure",155,28,"Female","Right-handed",565,1021,723,2,21,3,"57","0","0","0","0","0",2,"R","C","+ 100 ms",1,3,"+"
"2023-03-08","19:40:09","mac","osx",132767727,"1280px","800px",1280,800,60,"block_W1S2","Probe_Measure",156,28,"Female","Right-handed",573,1021,723,2,9,1,"57","0","0","0","0","0",2,"W","C","+ 100 ms",1,1,"+"
"2023-03-08","19:40:09","mac","osx",132767727,"1280px","800px",1280,800,60,"block_R3S2","Probe_Measure",157,28,"Female","Right-handed",682,1021,723,6,25,-3,"57","0","0","0","0","0",2,"R","O","+ 100 ms",1,3,"-"
"2023-03-08","19:40:09","mac","osx",132767727,"1280px","800px",1280,800,60,"block_W1S1","Probe_Measure",158,28,"Female","Right-handed",561,1021,723,1,9,3,"57","0","0","0","0","0",2,"W","C","- 100 ms",1,3,"+"
"2023-03-08","19:40:09","mac","osx",132767727,"1280px","800px",1280,800,60,"block_W3S1","Probe_Measure",159,28,"Female","Right-handed",4800,1021,723,5,5,-1,"0","0","0","0","0","0",2,"W","O","- 100 ms",0,1,"-"
"2023-03-08","19:40:09","mac","osx",132767727,"1280px","800px",1280,800,60,"block_R2S2","Probe_Measure",160,28,"Female","Right-handed",1114,1021,723,4,23,-1,"57","0","0","0","0","0",2,"R","M","+ 100 ms",1,1,"-"
"2023-03-08","19:40:09","mac","osx",132767727,"1280px","800px",1280,800,60,"block_R3S2","Probe_Measure",161,28,"Female","Right-handed",4800,1021,723,6,25,-1,"0","0","0","0","0","0",2,"R","O","+ 100 ms",0,1,"-"
"2023-03-08","19:40:09","mac","osx",132767727,"1280px","800px",1280,800,60,"block_R1S1","Probe_Measure",162,28,"Female","Right-handed",4800,1021,723,1,21,1,"0","0","0","0","0","0",2,"R","C","- 100 ms",0,1,"+"
"2023-03-08","19:40:09","mac","osx",132767727,"1280px","800px",1280,800,60,"block_R3S1","Probe_Measure",163,28,"Female","Right-handed",507,1021,723,5,25,3,"57","0","0","0","0","0",2,"R","O","- 100 ms",1,3,"+"
"2023-03-08","19:40:09","mac","osx",132767727,"1280px","800px",1280,800,60,"block_R3S2","Probe_Measure",164,28,"Female","Right-handed",1415,1021,723,6,25,3,"57","0","0","0","0","0",2,"R","O","+ 100 ms",1,3,"+"
"2023-03-08","19:40:09","mac","osx",132767727,"1280px","800px",1280,800,60,"block_R1S2","Probe_Measure",165,28,"Female","Right-handed",4800,1021,723,2,21,1,"0","0","0","0","0","0",2,"R","C","+ 100 ms",0,1,"+"
"2023-03-08","19:40:09","mac","osx",132767727,"1280px","800px",1280,800,60,"block_W3S1","Probe_Measure",166,28,"Female","Right-handed",706,1021,723,5,5,-3,"57","0","0","0","0","0",2,"W","O","- 100 ms",1,3,"-"
"2023-03-08","19:40:09","mac","osx",132767727,"1280px","800px",1280,800,60,"block_R1S2","Probe_Measure",167,28,"Female","Right-handed",676,1021,723,2,21,-3,"57","0","0","0","0","0",2,"R","C","+ 100 ms",1,3,"-"
"2023-03-08","19:40:09","mac","osx",132767727,"1280px","800px",1280,800,60,"block_W3S1","Probe_Measure",168,28,"Female","Right-handed",665,1021,723,5,5,3,"57","0","0","0","0","0",2,"W","O","- 100 ms",1,3,"+"
"2023-03-08","19:40:09","mac","osx",132767727,"1280px","800px",1280,800,60,"block_W1S2","Probe_Measure",169,28,"Female","Right-handed",656,1021,723,2,9,3,"57","0","0","0","0","0",2,"W","C","+ 100 ms",1,3,"+"
"2023-03-08","19:40:09","mac","osx",132767727,"1280px","800px",1280,800,60,"block_W2S1","Probe_Measure",170,28,"Female","Right-handed",678,1021,723,3,7,-1,"57","0","0","0","0","0",2,"W","M","- 100 ms",1,1,"-"
"2023-03-08","19:40:09","mac","osx",132767727,"1280px","800px",1280,800,60,"block_R2S2","Probe_Measure",171,28,"Female","Right-handed",546,1021,723,4,23,-3,"57","0","0","0","0","0",2,"R","M","+ 100 ms",1,3,"-"
"2023-03-08","19:40:09","mac","osx",132767727,"1280px","800px",1280,800,60,"block_R1S2","Probe_Measure",172,28,"Female","Right-handed",1137,1021,723,2,21,-1,"57","0","0","0","0","0",2,"R","C","+ 100 ms",1,1,"-"
"2023-03-08","19:40:09","mac","osx",132767727,"1280px","800px",1280,800,60,"block_W3S2","Probe_Measure",173,28,"Female","Right-handed",628,1021,723,6,5,-3,"57","0","0","0","0","0",2,"W","O","+ 100 ms",1,3,"-"
"2023-03-08","19:40:09","mac","osx",132767727,"1280px","800px",1280,800,60,"block_R1S1","Probe_Measure",174,28,"Female","Right-handed",550,1021,723,1,21,3,"57","0","0","0","0","0",2,"R","C","- 100 ms",1,3,"+"
"2023-03-08","19:40:09","mac","osx",132767727,"1280px","800px",1280,800,60,"block_W1S1","Probe_Measure",175,28,"Female","Right-handed",4800,1021,723,1,9,1,"0","0","0","0","0","0",2,"W","C","- 100 ms",0,1,"+"
"2023-03-08","19:40:09","mac","osx",132767727,"1280px","800px",1280,800,60,"block_W2S1","Probe_Measure",176,28,"Female","Right-handed",517,1021,723,3,7,3,"57","0","0","0","0","0",2,"W","M","- 100 ms",1,3,"+"
"2023-03-08","19:40:09","mac","osx",132767727,"1280px","800px",1280,800,60,"block_R1S1","Probe_Measure",177,28,"Female","Right-handed",4800,1021,723,1,21,-1,"0","0","0","0","0","0",2,"R","C","- 100 ms",0,1,"-"
"2023-03-08","19:40:09","mac","osx",132767727,"1280px","800px",1280,800,60,"block_R3S1","Probe_Measure",178,28,"Female","Right-handed",4800,1021,723,5,25,-1,"0","0","0","0","0","0",2,"R","O","- 100 ms",0,1,"-"
"2023-03-08","19:40:09","mac","osx",132767727,"1280px","800px",1280,800,60,"block_W1S1","Probe_Measure",179,28,"Female","Right-handed",648,1021,723,1,9,-3,"57","0","0","0","0","0",2,"W","C","- 100 ms",1,3,"-"
"2023-03-08","19:40:09","mac","osx",132767727,"1280px","800px",1280,800,60,"block_W3S2","Probe_Measure",180,28,"Female","Right-handed",4800,1021,723,6,5,1,"0","0","0","0","0","0",2,"W","O","+ 100 ms",0,1,"+"
"2023-03-08","19:40:09","mac","osx",132767727,"1280px","800px",1280,800,60,"block_W1S2","Probe_Measure",181,28,"Female","Right-handed",566,1021,723,2,9,-1,"57","0","0","0","0","0",2,"W","C","+ 100 ms",1,1,"-"
"2023-03-08","19:40:09","mac","osx",132767727,"1280px","800px",1280,800,60,"block_R3S2","Probe_Measure",182,28,"Female","Right-handed",4800,1021,723,6,25,1,"0","0","0","0","0","0",2,"R","O","+ 100 ms",0,1,"+"
"2023-03-08","19:40:09","mac","osx",132767727,"1280px","800px",1280,800,60,"block_W3S2","Probe_Measure",183,28,"Female","Right-handed",4800,1021,723,6,5,-1,"0","0","0","0","0","0",2,"W","O","+ 100 ms",0,1,"-"
